"Participant","Illusion_Type","Illusion_Difference","Illusion_Strength","File","Block","Trial","ISI","RT","Response","Response_Correct","Error","Illusion_Effect","Task_Difficulty","Condition_Illusion","Condition_Difficulty"
"S012","MullerLyer",0.45,9,"MullerLyer_9.00000_0.45000.png","A",1,582364,1.124,"arrowup","arrowup",0,"Incongruent",0.45,"Incongruent - Mild","Easy"
"S012","MullerLyer",-0.30447,9,"MullerLyer_9.00000_-0.30447.png","A",2,584165,1.395,"arrowdown","arrowdown",0,"Incongruent",0.30447,"Incongruent - Mild","Easy"
"S012","MullerLyer",-0.45,-27,"MullerLyer_-27.000_-0.4500.png","A",3,586177,0.923,"arrowdown","arrowdown",0,"Congruent",0.45,"Congruent - Strong","Easy"
"S012","MullerLyer",0.08716,-9,"MullerLyer_-9.0000_0.08716.png","A",4,587813,1.084,"arrowup","arrowup",0,"Congruent",0.08716,"Congruent - Mild","Hard"
"S012","MullerLyer",0.18509,-3,"MullerLyer_-3.0000_0.18509.png","A",5,589814,1.23,"arrowup","arrowup",0,"Congruent",0.18509,"Congruent - Mild","Hard"
"S012","MullerLyer",0.45,3,"MullerLyer_3.00000_0.45000.png","A",6,591751,1.178,"arrowup","arrowup",0,"Incongruent",0.45,"Incongruent - Mild","Easy"
"S012","MullerLyer",0.45,-9,"MullerLyer_-9.0000_0.45000.png","A",7,593648,1.411,"arrowup","arrowup",0,"Congruent",0.45,"Congruent - Mild","Easy"
"S012","MullerLyer",-0.45,15,"MullerLyer_15.0000_-0.4500.png","A",8,595782,2.169,"arrowdown","arrowdown",0,"Incongruent",0.45,"Incongruent - Mild","Easy"
"S012","MullerLyer",0.30447,-9,"MullerLyer_-9.0000_0.30447.png","A",9,598799,1.041,"arrowup","arrowup",0,"Congruent",0.30447,"Congruent - Mild","Easy"
"S012","MullerLyer",0.08716,-21,"MullerLyer_-21.000_0.08716.png","A",10,600630,1.093,"arrowup","arrowup",0,"Congruent",0.08716,"Congruent - Strong","Hard"
"S012","MullerLyer",0.45,-21,"MullerLyer_-21.000_0.45000.png","A",11,602539,1.157,"arrowup","arrowup",0,"Congruent",0.45,"Congruent - Strong","Easy"
"S012","MullerLyer",-0.18509,-15,"MullerLyer_-15.000_-0.18509.png","A",12,604546,1.614,"arrowdown","arrowdown",0,"Congruent",0.18509,"Congruent - Mild","Hard"
"S012","MullerLyer",0.08716,-27,"MullerLyer_-27.000_0.08716.png","A",13,606914,1.053,"arrowup","arrowup",0,"Congruent",0.08716,"Congruent - Strong","Hard"
"S012","MullerLyer",-0.18509,21,"MullerLyer_21.0000_-0.18509.png","A",14,608916,2.852,"arrowdown","arrowdown",0,"Incongruent",0.18509,"Incongruent - Strong","Hard"
"S012","MullerLyer",-0.30447,15,"MullerLyer_15.0000_-0.30447.png","A",15,612827,2.649,"arrowdown","arrowdown",0,"Incongruent",0.30447,"Incongruent - Mild","Easy"
"S012","MullerLyer",-0.08716,-21,"MullerLyer_-21.000_-0.08716.png","A",16,616227,1.125,"arrowdown","arrowdown",0,"Congruent",0.08716,"Congruent - Strong","Hard"
"S012","MullerLyer",-0.45,-21,"MullerLyer_-21.000_-0.4500.png","A",17,618135,1.275,"arrowup","arrowdown",1,"Congruent",0.45,"Congruent - Strong","Easy"
"S012","MullerLyer",-0.30447,21,"MullerLyer_21.0000_-0.30447.png","A",18,620093,2.798,"arrowup","arrowdown",1,"Incongruent",0.30447,"Incongruent - Strong","Easy"
"S012","MullerLyer",0.30447,15,"MullerLyer_15.0000_0.30447.png","A",19,623640,1.905,"arrowup","arrowup",0,"Incongruent",0.30447,"Incongruent - Mild","Easy"
"S012","MullerLyer",-0.45,3,"MullerLyer_3.00000_-0.4500.png","A",20,626534,1.098,"arrowdown","arrowdown",0,"Incongruent",0.45,"Incongruent - Mild","Easy"
"S012","MullerLyer",-0.08716,15,"MullerLyer_15.0000_-0.08716.png","A",21,628667,0.972,"arrowup","arrowdown",1,"Incongruent",0.08716,"Incongruent - Mild","Hard"
"S012","MullerLyer",0.08716,21,"MullerLyer_21.0000_0.08716.png","A",22,630274,1.605,"arrowdown","arrowup",1,"Incongruent",0.08716,"Incongruent - Strong","Hard"
"S012","MullerLyer",-0.08716,3,"MullerLyer_3.00000_-0.08716.png","A",23,632677,1.414,"arrowdown","arrowdown",0,"Incongruent",0.08716,"Incongruent - Mild","Hard"
"S012","MullerLyer",0.18509,3,"MullerLyer_3.00000_0.18509.png","A",24,635065,2.105,"arrowup","arrowup",0,"Incongruent",0.18509,"Incongruent - Mild","Hard"
"S012","MullerLyer",0.45,-27,"MullerLyer_-27.000_0.45000.png","A",25,638286,0.941,"arrowup","arrowup",0,"Congruent",0.45,"Congruent - Strong","Easy"
"S012","MullerLyer",0.18509,9,"MullerLyer_9.00000_0.18509.png","A",26,640340,2.438,"arrowdown","arrowup",1,"Incongruent",0.18509,"Incongruent - Mild","Hard"
"S012","MullerLyer",-0.08716,21,"MullerLyer_21.0000_-0.08716.png","A",27,643827,1.733,"arrowup","arrowdown",1,"Incongruent",0.08716,"Incongruent - Strong","Hard"
"S012","MullerLyer",-0.30447,-21,"MullerLyer_-21.000_-0.30447.png","A",28,646662,0.946,"arrowdown","arrowdown",0,"Congruent",0.30447,"Congruent - Strong","Easy"
"S012","MullerLyer",0.30447,-15,"MullerLyer_-15.000_0.30447.png","A",29,648412,0.757,"arrowup","arrowup",0,"Congruent",0.30447,"Congruent - Mild","Easy"
"S012","MullerLyer",0.45,-15,"MullerLyer_-15.000_0.45000.png","A",30,649967,1.061,"arrowup","arrowup",0,"Congruent",0.45,"Congruent - Mild","Easy"
"S012","MullerLyer",-0.18509,3,"MullerLyer_3.00000_-0.18509.png","A",31,651968,1.032,"arrowdown","arrowdown",0,"Incongruent",0.18509,"Incongruent - Mild","Hard"
"S012","MullerLyer",0.08716,15,"MullerLyer_15.0000_0.08716.png","A",32,653845,1.862,"arrowdown","arrowup",1,"Incongruent",0.08716,"Incongruent - Mild","Hard"
"S012","MullerLyer",0.45,-3,"MullerLyer_-3.0000_0.45000.png","A",33,656398,0.842,"arrowup","arrowup",0,"Congruent",0.45,"Congruent - Mild","Easy"
"S012","MullerLyer",-0.30447,-9,"MullerLyer_-9.0000_-0.30447.png","A",34,657909,0.908,"arrowdown","arrowdown",0,"Congruent",0.30447,"Congruent - Mild","Easy"
"S012","MullerLyer",0.30447,21,"MullerLyer_21.0000_0.30447.png","A",35,659631,2.172,"arrowdown","arrowup",1,"Incongruent",0.30447,"Incongruent - Strong","Easy"
"S012","MullerLyer",0.08716,9,"MullerLyer_9.00000_0.08716.png","A",36,662710,2.035,"arrowdown","arrowup",1,"Incongruent",0.08716,"Incongruent - Mild","Hard"
"S012","MullerLyer",0.18509,-15,"MullerLyer_-15.000_0.18509.png","A",37,665833,0.921,"arrowup","arrowup",0,"Congruent",0.18509,"Congruent - Mild","Hard"
"S012","MullerLyer",0.30447,3,"MullerLyer_3.00000_0.30447.png","A",38,667423,1.308,"arrowup","arrowup",0,"Incongruent",0.30447,"Incongruent - Mild","Easy"
"S012","MullerLyer",0.18509,-21,"MullerLyer_-21.000_0.18509.png","A",39,669609,1.103,"arrowup","arrowup",0,"Congruent",0.18509,"Congruent - Strong","Hard"
"S012","MullerLyer",-0.30447,27,"MullerLyer_27.0000_-0.30447.png","A",40,671696,3.52,"arrowdown","arrowdown",0,"Incongruent",0.30447,"Incongruent - Strong","Easy"
"S012","MullerLyer",-0.45,-3,"MullerLyer_-3.0000_-0.4500.png","A",41,675904,0.948,"arrowdown","arrowdown",0,"Congruent",0.45,"Congruent - Mild","Easy"
"S012","MullerLyer",0.08716,3,"MullerLyer_3.00000_0.08716.png","A",42,677726,1.799,"arrowup","arrowup",0,"Incongruent",0.08716,"Incongruent - Mild","Hard"
"S012","MullerLyer",-0.08716,-3,"MullerLyer_-3.0000_-0.08716.png","A",43,680431,1.554,"arrowdown","arrowdown",0,"Congruent",0.08716,"Congruent - Mild","Hard"
"S012","MullerLyer",0.30447,-21,"MullerLyer_-21.000_0.30447.png","A",44,682646,0.826,"arrowup","arrowup",0,"Congruent",0.30447,"Congruent - Strong","Easy"
"S012","MullerLyer",0.45,27,"MullerLyer_27.0000_0.45000.png","A",45,684152,2.515,"arrowup","arrowup",0,"Incongruent",0.45,"Incongruent - Strong","Easy"
"S012","MullerLyer",-0.45,27,"MullerLyer_27.0000_-0.4500.png","A",46,687331,1.472,"arrowdown","arrowdown",0,"Incongruent",0.45,"Incongruent - Strong","Easy"
"S012","MullerLyer",0.08716,-3,"MullerLyer_-3.0000_0.08716.png","A",47,689568,1.218,"arrowup","arrowup",0,"Congruent",0.08716,"Congruent - Mild","Hard"
"S012","MullerLyer",0.30447,-3,"MullerLyer_-3.0000_0.30447.png","A",48,691578,0.948,"arrowup","arrowup",0,"Congruent",0.30447,"Congruent - Mild","Easy"
"S012","MullerLyer",-0.08716,-15,"MullerLyer_-15.000_-0.08716.png","A",49,693158,1.013,"arrowdown","arrowdown",0,"Congruent",0.08716,"Congruent - Mild","Hard"
"S012","MullerLyer",0.30447,-27,"MullerLyer_-27.000_0.30447.png","A",50,695158,0.837,"arrowup","arrowup",0,"Congruent",0.30447,"Congruent - Strong","Easy"
"S012","MullerLyer",-0.18509,15,"MullerLyer_15.0000_-0.18509.png","A",51,696968,3.242,"arrowup","arrowdown",1,"Incongruent",0.18509,"Incongruent - Mild","Hard"
"S012","MullerLyer",0.18509,-9,"MullerLyer_-9.0000_0.18509.png","A",52,701199,1.455,"arrowup","arrowup",0,"Congruent",0.18509,"Congruent - Mild","Hard"
"S012","MullerLyer",0.18509,27,"MullerLyer_27.0000_0.18509.png","A",53,703661,1.576,"arrowdown","arrowup",1,"Incongruent",0.18509,"Incongruent - Strong","Hard"
"S012","MullerLyer",-0.08716,-9,"MullerLyer_-9.0000_-0.08716.png","A",54,705932,1.348,"arrowdown","arrowdown",0,"Congruent",0.08716,"Congruent - Mild","Hard"
"S012","MullerLyer",-0.18509,-21,"MullerLyer_-21.000_-0.18509.png","A",55,708255,0.838,"arrowdown","arrowdown",0,"Congruent",0.18509,"Congruent - Strong","Hard"
"S012","MullerLyer",0.45,21,"MullerLyer_21.0000_0.45000.png","A",56,710138,2.22,"arrowup","arrowup",0,"Incongruent",0.45,"Incongruent - Strong","Easy"
"S012","MullerLyer",-0.45,-15,"MullerLyer_-15.000_-0.4500.png","A",57,713383,1.293,"arrowdown","arrowdown",0,"Congruent",0.45,"Congruent - Mild","Easy"
"S012","MullerLyer",-0.30447,-15,"MullerLyer_-15.000_-0.30447.png","A",58,715641,0.868,"arrowdown","arrowdown",0,"Congruent",0.30447,"Congruent - Mild","Easy"
"S012","MullerLyer",-0.18509,27,"MullerLyer_27.0000_-0.18509.png","A",59,717204,0.911,"arrowup","arrowdown",1,"Incongruent",0.18509,"Incongruent - Strong","Hard"
"S012","MullerLyer",0.30447,9,"MullerLyer_9.00000_0.30447.png","A",60,718792,1.673,"arrowup","arrowup",0,"Incongruent",0.30447,"Incongruent - Mild","Easy"
"S012","MullerLyer",-0.08716,-27,"MullerLyer_-27.000_-0.08716.png","A",61,721140,0.776,"arrowdown","arrowdown",0,"Congruent",0.08716,"Congruent - Strong","Hard"
"S012","MullerLyer",-0.45,-9,"MullerLyer_-9.0000_-0.4500.png","A",62,722604,0.786,"arrowdown","arrowdown",0,"Congruent",0.45,"Congruent - Mild","Easy"
"S012","MullerLyer",-0.18509,-27,"MullerLyer_-27.000_-0.18509.png","A",63,724157,1.926,"arrowdown","arrowdown",0,"Congruent",0.18509,"Congruent - Strong","Hard"
"S012","MullerLyer",0.30447,27,"MullerLyer_27.0000_0.30447.png","A",64,727064,3.174,"arrowdown","arrowup",1,"Incongruent",0.30447,"Incongruent - Strong","Easy"
"S012","MullerLyer",0.08716,-15,"MullerLyer_-15.000_0.08716.png","A",65,731027,1.392,"arrowup","arrowup",0,"Congruent",0.08716,"Congruent - Mild","Hard"
"S012","MullerLyer",-0.45,9,"MullerLyer_9.00000_-0.4500.png","A",66,733367,0.996,"arrowdown","arrowdown",0,"Incongruent",0.45,"Incongruent - Mild","Easy"
"S012","MullerLyer",0.08716,27,"MullerLyer_27.0000_0.08716.png","A",67,735155,1.121,"arrowdown","arrowup",1,"Incongruent",0.08716,"Incongruent - Strong","Hard"
"S012","MullerLyer",-0.30447,-27,"MullerLyer_-27.000_-0.30447.png","A",68,737039,0.923,"arrowdown","arrowdown",0,"Congruent",0.30447,"Congruent - Strong","Easy"
"S012","MullerLyer",0.18509,15,"MullerLyer_15.0000_0.18509.png","A",69,738692,2.251,"arrowdown","arrowup",1,"Incongruent",0.18509,"Incongruent - Mild","Hard"
"S012","MullerLyer",-0.45,21,"MullerLyer_21.0000_-0.4500.png","A",70,742060,1.886,"arrowdown","arrowdown",0,"Incongruent",0.45,"Incongruent - Strong","Easy"
"S012","MullerLyer",-0.08716,9,"MullerLyer_9.00000_-0.08716.png","A",71,744585,1.499,"arrowup","arrowdown",1,"Incongruent",0.08716,"Incongruent - Mild","Hard"
"S012","MullerLyer",0.45,15,"MullerLyer_15.0000_0.45000.png","A",72,746921,1.011,"arrowup","arrowup",0,"Incongruent",0.45,"Incongruent - Mild","Easy"
"S012","MullerLyer",-0.18509,9,"MullerLyer_9.00000_-0.18509.png","A",73,748624,2.371,"arrowdown","arrowdown",0,"Incongruent",0.18509,"Incongruent - Mild","Hard"
"S012","MullerLyer",-0.30447,-3,"MullerLyer_-3.0000_-0.30447.png","A",74,751672,1.181,"arrowdown","arrowdown",0,"Congruent",0.30447,"Congruent - Mild","Easy"
"S012","MullerLyer",-0.18509,-9,"MullerLyer_-9.0000_-0.18509.png","A",75,753671,0.884,"arrowdown","arrowdown",0,"Congruent",0.18509,"Congruent - Mild","Hard"
"S012","MullerLyer",-0.30447,3,"MullerLyer_3.00000_-0.30447.png","A",76,755480,1.475,"arrowdown","arrowdown",0,"Incongruent",0.30447,"Incongruent - Mild","Easy"
"S012","MullerLyer",-0.08716,27,"MullerLyer_27.0000_-0.08716.png","A",77,757841,1.681,"arrowup","arrowdown",1,"Incongruent",0.08716,"Incongruent - Strong","Hard"
"S012","MullerLyer",0.18509,21,"MullerLyer_21.0000_0.18509.png","A",78,760227,1.767,"arrowdown","arrowup",1,"Incongruent",0.18509,"Incongruent - Strong","Hard"
"S012","MullerLyer",-0.18509,-3,"MullerLyer_-3.0000_-0.18509.png","A",79,762740,1.154,"arrowdown","arrowdown",0,"Congruent",0.18509,"Congruent - Mild","Hard"
"S012","MullerLyer",0.18509,-27,"MullerLyer_-27.000_0.18509.png","A",80,764855,1.236,"arrowup","arrowup",0,"Congruent",0.18509,"Congruent - Strong","Hard"
"S012","Ebbinghaus",0.09684,1.05,"Ebbinghaus_1.05000_0.09684.png","A",1,783985,2.105,"arrowright","arrowleft",1,"Incongruent",0.09684,"Incongruent - Strong","Hard"
"S012","Ebbinghaus",-0.20566,0.45,"Ebbinghaus_0.45000_-0.20566.png","A",2,786893,4.702,"arrowleft","arrowright",1,"Incongruent",0.20566,"Incongruent - Mild","Hard"
"S012","Ebbinghaus",-0.5,-1.35,"Ebbinghaus_-1.3500_-0.5000.png","A",3,792359,1.043,"arrowright","arrowright",0,"Congruent",0.5,"Congruent - Strong","Easy"
"S012","Ebbinghaus",-0.09684,0.45,"Ebbinghaus_0.45000_-0.09684.png","A",4,794434,1.351,"arrowleft","arrowright",1,"Incongruent",0.09684,"Incongruent - Mild","Hard"
"S012","Ebbinghaus",-0.09684,0.75,"Ebbinghaus_0.75000_-0.09684.png","A",5,796554,2.387,"arrowleft","arrowright",1,"Incongruent",0.09684,"Incongruent - Mild","Hard"
"S012","Ebbinghaus",0.5,-0.75,"Ebbinghaus_-0.7500_0.50000.png","A",6,799722,1.504,"arrowleft","arrowleft",0,"Congruent",0.5,"Congruent - Mild","Easy"
"S012","Ebbinghaus",-0.5,-0.15,"Ebbinghaus_-0.1500_-0.5000.png","A",7,801996,0.982,"arrowright","arrowright",0,"Congruent",0.5,"Congruent - Mild","Easy"
"S012","Ebbinghaus",-0.5,-1.05,"Ebbinghaus_-1.0500_-0.5000.png","A",8,803846,1.048,"arrowright","arrowright",0,"Congruent",0.5,"Congruent - Strong","Easy"
"S012","Ebbinghaus",-0.20566,-0.75,"Ebbinghaus_-0.7500_-0.20566.png","A",9,805637,1.229,"arrowright","arrowright",0,"Congruent",0.20566,"Congruent - Mild","Hard"
"S012","Ebbinghaus",-0.20566,-1.05,"Ebbinghaus_-1.0500_-0.20566.png","A",10,807481,1.346,"arrowright","arrowright",0,"Congruent",0.20566,"Congruent - Strong","Hard"
"S012","Ebbinghaus",0.5,-0.45,"Ebbinghaus_-0.4500_0.50000.png","A",11,809642,0.857,"arrowleft","arrowleft",0,"Congruent",0.5,"Congruent - Mild","Easy"
"S012","Ebbinghaus",-0.5,1.35,"Ebbinghaus_1.35000_-0.5000.png","A",12,811292,1.156,"arrowright","arrowright",0,"Incongruent",0.5,"Incongruent - Strong","Easy"
"S012","Ebbinghaus",-0.20566,1.35,"Ebbinghaus_1.35000_-0.20566.png","A",13,813490,3.218,"arrowright","arrowright",0,"Incongruent",0.20566,"Incongruent - Strong","Hard"
"S012","Ebbinghaus",0.3383,0.75,"Ebbinghaus_0.75000_0.33830.png","A",14,817416,2.403,"arrowright","arrowleft",1,"Incongruent",0.3383,"Incongruent - Mild","Easy"
"S012","Ebbinghaus",-0.5,0.75,"Ebbinghaus_0.75000_-0.5000.png","A",15,820721,1.587,"arrowright","arrowright",0,"Incongruent",0.5,"Incongruent - Mild","Easy"
"S012","Ebbinghaus",0.5,1.05,"Ebbinghaus_1.05000_0.50000.png","A",16,823373,1.804,"arrowright","arrowleft",1,"Incongruent",0.5,"Incongruent - Strong","Easy"
"S012","Ebbinghaus",-0.20566,-0.15,"Ebbinghaus_-0.1500_-0.20566.png","A",17,826114,1.104,"arrowleft","arrowright",1,"Congruent",0.20566,"Congruent - Mild","Hard"
"S012","Ebbinghaus",-0.3383,-1.35,"Ebbinghaus_-1.3500_-0.3383.png","A",18,828209,0.96,"arrowright","arrowright",0,"Congruent",0.3383,"Congruent - Strong","Easy"
"S012","Ebbinghaus",-0.3383,-0.15,"Ebbinghaus_-0.1500_-0.3383.png","A",19,829948,3.703,"arrowright","arrowright",0,"Congruent",0.3383,"Congruent - Mild","Easy"
"S012","Ebbinghaus",0.20566,-1.35,"Ebbinghaus_-1.3500_0.20566.png","A",20,834764,1.702,"arrowright","arrowleft",1,"Congruent",0.20566,"Congruent - Strong","Hard"
"S012","Ebbinghaus",-0.09684,-0.15,"Ebbinghaus_-0.1500_-0.09684.png","A",21,837123,1.562,"arrowright","arrowright",0,"Congruent",0.09684,"Congruent - Mild","Hard"
"S012","Ebbinghaus",0.09684,0.75,"Ebbinghaus_0.75000_0.09684.png","A",22,839678,1.308,"arrowright","arrowleft",1,"Incongruent",0.09684,"Incongruent - Mild","Hard"
"S012","Ebbinghaus",0.20566,0.15,"Ebbinghaus_0.15000_0.20566.png","A",23,841856,1.78,"arrowright","arrowleft",1,"Incongruent",0.20566,"Incongruent - Mild","Hard"
"S012","Ebbinghaus",0.20566,-0.75,"Ebbinghaus_-0.7500_0.20566.png","A",24,844554,1.767,"arrowleft","arrowleft",0,"Congruent",0.20566,"Congruent - Mild","Hard"
"S012","Ebbinghaus",0.3383,0.45,"Ebbinghaus_0.45000_0.33830.png","A",25,847387,1.194,"arrowleft","arrowleft",0,"Incongruent",0.3383,"Incongruent - Mild","Easy"
"S012","Ebbinghaus",0.20566,1.35,"Ebbinghaus_1.35000_0.20566.png","A",26,849290,1.702,"arrowleft","arrowleft",0,"Incongruent",0.20566,"Incongruent - Strong","Hard"
"S012","Ebbinghaus",0.09684,1.35,"Ebbinghaus_1.35000_0.09684.png","A",27,851662,1.979,"arrowright","arrowleft",1,"Incongruent",0.09684,"Incongruent - Strong","Hard"
"S012","Ebbinghaus",0.09684,0.45,"Ebbinghaus_0.45000_0.09684.png","A",28,854411,2.343,"arrowleft","arrowleft",0,"Incongruent",0.09684,"Incongruent - Mild","Hard"
"S012","Ebbinghaus",-0.3383,-0.75,"Ebbinghaus_-0.7500_-0.3383.png","A",29,857532,0.935,"arrowright","arrowright",0,"Congruent",0.3383,"Congruent - Mild","Easy"
"S012","Ebbinghaus",-0.3383,-1.05,"Ebbinghaus_-1.0500_-0.3383.png","A",30,859110,1.007,"arrowright","arrowright",0,"Congruent",0.3383,"Congruent - Strong","Easy"
"S012","Ebbinghaus",-0.3383,1.05,"Ebbinghaus_1.05000_-0.3383.png","A",31,861169,1.648,"arrowleft","arrowright",1,"Incongruent",0.3383,"Incongruent - Strong","Easy"
"S012","Ebbinghaus",0.3383,0.15,"Ebbinghaus_0.15000_0.33830.png","A",32,863867,1.409,"arrowleft","arrowleft",0,"Incongruent",0.3383,"Incongruent - Mild","Easy"
"S012","Ebbinghaus",-0.3383,1.35,"Ebbinghaus_1.35000_-0.3383.png","A",33,866103,1.793,"arrowleft","arrowright",1,"Incongruent",0.3383,"Incongruent - Strong","Easy"
"S012","Ebbinghaus",-0.09684,-1.05,"Ebbinghaus_-1.0500_-0.09684.png","A",34,868709,1.522,"arrowright","arrowright",0,"Congruent",0.09684,"Congruent - Strong","Hard"
"S012","Ebbinghaus",0.3383,1.35,"Ebbinghaus_1.35000_0.33830.png","A",35,871190,2.876,"arrowright","arrowleft",1,"Incongruent",0.3383,"Incongruent - Strong","Easy"
"S012","Ebbinghaus",0.3383,1.05,"Ebbinghaus_1.05000_0.33830.png","A",36,874965,1.171,"arrowright","arrowleft",1,"Incongruent",0.3383,"Incongruent - Strong","Easy"
"S012","Ebbinghaus",-0.20566,0.75,"Ebbinghaus_0.75000_-0.20566.png","A",37,877183,1.965,"arrowright","arrowright",0,"Incongruent",0.20566,"Incongruent - Mild","Hard"
"S012","Ebbinghaus",-0.3383,-0.45,"Ebbinghaus_-0.4500_-0.3383.png","A",38,879882,1.095,"arrowright","arrowright",0,"Congruent",0.3383,"Congruent - Mild","Easy"
"S012","Ebbinghaus",0.20566,0.45,"Ebbinghaus_0.45000_0.20566.png","A",39,881956,1.505,"arrowright","arrowleft",1,"Incongruent",0.20566,"Incongruent - Mild","Hard"
"S012","Ebbinghaus",0.5,0.15,"Ebbinghaus_0.15000_0.50000.png","A",40,884285,1.052,"arrowleft","arrowleft",0,"Incongruent",0.5,"Incongruent - Mild","Easy"
"S012","Ebbinghaus",-0.09684,-0.75,"Ebbinghaus_-0.7500_-0.09684.png","A",41,886213,0.979,"arrowright","arrowright",0,"Congruent",0.09684,"Congruent - Mild","Hard"
"S012","Ebbinghaus",0.3383,-0.15,"Ebbinghaus_-0.1500_0.33830.png","A",42,888242,1.542,"arrowleft","arrowleft",0,"Congruent",0.3383,"Congruent - Mild","Easy"
"S012","Ebbinghaus",-0.5,0.45,"Ebbinghaus_0.45000_-0.5000.png","A",43,890787,0.999,"arrowright","arrowright",0,"Incongruent",0.5,"Incongruent - Mild","Easy"
"S012","Ebbinghaus",-0.09684,1.05,"Ebbinghaus_1.05000_-0.09684.png","A",44,892485,1.235,"arrowleft","arrowright",1,"Incongruent",0.09684,"Incongruent - Strong","Hard"
"S012","Ebbinghaus",-0.5,-0.75,"Ebbinghaus_-0.7500_-0.5000.png","A",45,894366,1.004,"arrowright","arrowright",0,"Congruent",0.5,"Congruent - Mild","Easy"
"S012","Ebbinghaus",-0.20566,-1.35,"Ebbinghaus_-1.3500_-0.20566.png","A",46,896015,1.141,"arrowright","arrowright",0,"Congruent",0.20566,"Congruent - Strong","Hard"
"S012","Ebbinghaus",-0.3383,0.75,"Ebbinghaus_0.75000_-0.3383.png","A",47,897914,2.015,"arrowright","arrowright",0,"Incongruent",0.3383,"Incongruent - Mild","Easy"
"S012","Ebbinghaus",0.09684,-0.45,"Ebbinghaus_-0.4500_0.09684.png","A",48,900801,1.07,"arrowleft","arrowleft",0,"Congruent",0.09684,"Congruent - Mild","Hard"
"S012","Ebbinghaus",-0.20566,1.05,"Ebbinghaus_1.05000_-0.20566.png","A",49,902566,1.185,"arrowright","arrowright",0,"Incongruent",0.20566,"Incongruent - Strong","Hard"
"S012","Ebbinghaus",0.09684,-0.75,"Ebbinghaus_-0.7500_0.09684.png","A",50,904633,1.863,"arrowleft","arrowleft",0,"Congruent",0.09684,"Congruent - Mild","Hard"
"S012","Ebbinghaus",0.20566,-0.15,"Ebbinghaus_-0.1500_0.20566.png","A",51,907572,2.174,"arrowleft","arrowleft",0,"Congruent",0.20566,"Congruent - Mild","Hard"
"S012","Ebbinghaus",-0.09684,1.35,"Ebbinghaus_1.35000_-0.09684.png","A",52,910675,1.231,"arrowleft","arrowright",1,"Incongruent",0.09684,"Incongruent - Strong","Hard"
"S012","Ebbinghaus",0.5,0.45,"Ebbinghaus_0.45000_0.50000.png","A",53,912934,1.198,"arrowleft","arrowleft",0,"Incongruent",0.5,"Incongruent - Mild","Easy"
"S012","Ebbinghaus",-0.09684,0.15,"Ebbinghaus_0.15000_-0.09684.png","A",54,915012,1.421,"arrowright","arrowright",0,"Incongruent",0.09684,"Incongruent - Mild","Hard"
"S012","Ebbinghaus",0.20566,0.75,"Ebbinghaus_0.75000_0.20566.png","A",55,917260,1.254,"arrowright","arrowleft",1,"Incongruent",0.20566,"Incongruent - Mild","Hard"
"S012","Ebbinghaus",-0.5,1.05,"Ebbinghaus_1.05000_-0.5000.png","A",56,919508,1.075,"arrowright","arrowright",0,"Incongruent",0.5,"Incongruent - Strong","Easy"
"S012","Ebbinghaus",0.09684,0.15,"Ebbinghaus_0.15000_0.09684.png","A",57,921599,1.337,"arrowleft","arrowleft",0,"Incongruent",0.09684,"Incongruent - Mild","Hard"
"S012","Ebbinghaus",0.09684,-1.35,"Ebbinghaus_-1.3500_0.09684.png","A",58,923922,0.983,"arrowleft","arrowleft",0,"Congruent",0.09684,"Congruent - Strong","Hard"
"S012","Ebbinghaus",0.09684,-0.15,"Ebbinghaus_-0.1500_0.09684.png","A",59,925928,1.2,"arrowleft","arrowleft",0,"Congruent",0.09684,"Congruent - Mild","Hard"
"S012","Ebbinghaus",-0.3383,0.45,"Ebbinghaus_0.45000_-0.3383.png","A",60,927961,0.765,"arrowright","arrowright",0,"Incongruent",0.3383,"Incongruent - Mild","Easy"
"S012","Ebbinghaus",0.5,1.35,"Ebbinghaus_1.35000_0.50000.png","A",61,929393,1.602,"arrowright","arrowleft",1,"Incongruent",0.5,"Incongruent - Strong","Easy"
"S012","Ebbinghaus",0.3383,-1.05,"Ebbinghaus_-1.0500_0.33830.png","A",62,931769,0.999,"arrowleft","arrowleft",0,"Congruent",0.3383,"Congruent - Strong","Easy"
"S012","Ebbinghaus",0.5,-0.15,"Ebbinghaus_-0.1500_0.50000.png","A",63,933441,0.874,"arrowleft","arrowleft",0,"Congruent",0.5,"Congruent - Mild","Easy"
"S012","Ebbinghaus",0.20566,1.05,"Ebbinghaus_1.05000_0.20566.png","A",64,935408,1.047,"arrowright","arrowleft",1,"Incongruent",0.20566,"Incongruent - Strong","Hard"
"S012","Ebbinghaus",-0.5,0.15,"Ebbinghaus_0.15000_-0.5000.png","A",65,937141,0.861,"arrowright","arrowright",0,"Incongruent",0.5,"Incongruent - Mild","Easy"
"S012","Ebbinghaus",0.5,0.75,"Ebbinghaus_0.75000_0.50000.png","A",66,938982,1.235,"arrowleft","arrowleft",0,"Incongruent",0.5,"Incongruent - Mild","Easy"
"S012","Ebbinghaus",-0.3383,0.15,"Ebbinghaus_0.15000_-0.3383.png","A",67,940834,1.814,"arrowright","arrowright",0,"Incongruent",0.3383,"Incongruent - Mild","Easy"
"S012","Ebbinghaus",-0.09684,-1.35,"Ebbinghaus_-1.3500_-0.09684.png","A",68,943344,0.962,"arrowright","arrowright",0,"Congruent",0.09684,"Congruent - Strong","Hard"
"S012","Ebbinghaus",0.5,-1.35,"Ebbinghaus_-1.3500_0.50000.png","A",69,945077,0.835,"arrowleft","arrowleft",0,"Congruent",0.5,"Congruent - Strong","Easy"
"S012","Ebbinghaus",-0.20566,-0.45,"Ebbinghaus_-0.4500_-0.20566.png","A",70,946937,0.871,"arrowright","arrowright",0,"Congruent",0.20566,"Congruent - Mild","Hard"
"S012","Ebbinghaus",0.3383,-0.45,"Ebbinghaus_-0.4500_0.33830.png","A",71,948528,2.992,"arrowleft","arrowleft",0,"Congruent",0.3383,"Congruent - Mild","Easy"
"S012","Ebbinghaus",0.3383,-0.75,"Ebbinghaus_-0.7500_0.33830.png","A",72,952224,1.443,"arrowleft","arrowleft",0,"Congruent",0.3383,"Congruent - Mild","Easy"
"S012","Ebbinghaus",0.20566,-0.45,"Ebbinghaus_-0.4500_0.20566.png","A",73,954427,2.82,"arrowleft","arrowleft",0,"Congruent",0.20566,"Congruent - Mild","Hard"
"S012","Ebbinghaus",0.20566,-1.05,"Ebbinghaus_-1.0500_0.20566.png","A",74,958093,0.914,"arrowright","arrowleft",1,"Congruent",0.20566,"Congruent - Strong","Hard"
"S012","Ebbinghaus",0.3383,-1.35,"Ebbinghaus_-1.3500_0.33830.png","A",75,959964,0.924,"arrowleft","arrowleft",0,"Congruent",0.3383,"Congruent - Strong","Easy"
"S012","Ebbinghaus",-0.20566,0.15,"Ebbinghaus_0.15000_-0.20566.png","A",76,961905,0.896,"arrowright","arrowright",0,"Incongruent",0.20566,"Incongruent - Mild","Hard"
"S012","Ebbinghaus",-0.5,-0.45,"Ebbinghaus_-0.4500_-0.5000.png","A",77,963494,0.844,"arrowright","arrowright",0,"Congruent",0.5,"Congruent - Mild","Easy"
"S012","Ebbinghaus",0.09684,-1.05,"Ebbinghaus_-1.0500_0.09684.png","A",78,965008,0.927,"arrowleft","arrowleft",0,"Congruent",0.09684,"Congruent - Strong","Hard"
"S012","Ebbinghaus",-0.09684,-0.45,"Ebbinghaus_-0.4500_-0.09684.png","A",79,966605,0.963,"arrowright","arrowright",0,"Congruent",0.09684,"Congruent - Mild","Hard"
"S012","Ebbinghaus",0.5,-1.05,"Ebbinghaus_-1.0500_0.50000.png","A",80,968318,0.8,"arrowleft","arrowleft",0,"Congruent",0.5,"Congruent - Strong","Easy"
"S012","VerticalHorizontal",0.3,-13.5,"VerticalHorizontal_-13.500_0.30000.png","A",1,989389,1.338,"arrowleft","arrowleft",0,"Congruent",0.3,"Congruent - Mild","Easy"
"S012","VerticalHorizontal",-0.20298,-4.5,"VerticalHorizontal_-4.5000_-0.20298.png","A",2,991608,0.746,"arrowright","arrowright",0,"Congruent",0.20298,"Congruent - Mild","Easy"
"S012","VerticalHorizontal",-0.12339,-13.5,"VerticalHorizontal_-13.500_-0.12339.png","A",3,993205,1.445,"arrowright","arrowright",0,"Congruent",0.12339,"Congruent - Mild","Hard"
"S012","VerticalHorizontal",0.0581,-40.5,"VerticalHorizontal_-40.500_0.05810.png","A",4,995755,0.844,"arrowleft","arrowleft",0,"Congruent",0.0581,"Congruent - Strong","Hard"
"S012","VerticalHorizontal",0.3,-40.5,"VerticalHorizontal_-40.500_0.30000.png","A",5,997248,0.794,"arrowleft","arrowleft",0,"Congruent",0.3,"Congruent - Strong","Easy"
"S012","VerticalHorizontal",0.0581,4.5,"VerticalHorizontal_4.50000_0.05810.png","A",6,998820,2.316,"arrowleft","arrowleft",0,"Incongruent",0.0581,"Incongruent - Mild","Hard"
"S012","VerticalHorizontal",0.0581,40.5,"VerticalHorizontal_40.5000_0.05810.png","A",7,1001821,2.358,"arrowleft","arrowleft",0,"Incongruent",0.0581,"Incongruent - Strong","Hard"
"S012","VerticalHorizontal",-0.0581,22.5,"VerticalHorizontal_22.5000_-0.0581.png","A",8,1005140,1.62,"arrowright","arrowright",0,"Incongruent",0.0581,"Incongruent - Mild","Hard"
"S012","VerticalHorizontal",0.12339,22.5,"VerticalHorizontal_22.5000_0.12339.png","A",9,1007523,1.507,"arrowleft","arrowleft",0,"Incongruent",0.12339,"Incongruent - Mild","Hard"
"S012","VerticalHorizontal",-0.20298,-22.5,"VerticalHorizontal_-22.500_-0.20298.png","A",10,1009778,0.965,"arrowright","arrowright",0,"Congruent",0.20298,"Congruent - Mild","Easy"
"S012","VerticalHorizontal",0.12339,4.5,"VerticalHorizontal_4.50000_0.12339.png","A",11,1011781,0.754,"arrowleft","arrowleft",0,"Incongruent",0.12339,"Incongruent - Mild","Hard"
"S012","VerticalHorizontal",-0.20298,31.5,"VerticalHorizontal_31.5000_-0.20298.png","A",12,1013564,1.018,"arrowright","arrowright",0,"Incongruent",0.20298,"Incongruent - Strong","Easy"
"S012","VerticalHorizontal",0.20298,22.5,"VerticalHorizontal_22.5000_0.20298.png","A",13,1015606,0.721,"arrowleft","arrowleft",0,"Incongruent",0.20298,"Incongruent - Mild","Easy"
"S012","VerticalHorizontal",-0.0581,-13.5,"VerticalHorizontal_-13.500_-0.0581.png","A",14,1017306,2.654,"arrowleft","arrowright",1,"Congruent",0.0581,"Congruent - Mild","Hard"
"S012","VerticalHorizontal",0.0581,-13.5,"VerticalHorizontal_-13.500_0.05810.png","A",15,1020817,3.477,"arrowleft","arrowleft",0,"Congruent",0.0581,"Congruent - Mild","Hard"
"S012","VerticalHorizontal",-0.0581,-40.5,"VerticalHorizontal_-40.500_-0.0581.png","A",16,1025010,3.078,"arrowright","arrowright",0,"Congruent",0.0581,"Congruent - Strong","Hard"
"S012","VerticalHorizontal",0.3,13.5,"VerticalHorizontal_13.5000_0.30000.png","A",17,1028838,1.6,"arrowleft","arrowleft",0,"Incongruent",0.3,"Incongruent - Mild","Easy"
"S012","VerticalHorizontal",-0.12339,4.5,"VerticalHorizontal_4.50000_-0.12339.png","A",18,1031348,0.808,"arrowright","arrowright",0,"Incongruent",0.12339,"Incongruent - Mild","Hard"
"S012","VerticalHorizontal",0.12339,-40.5,"VerticalHorizontal_-40.500_0.12339.png","A",19,1033112,1.061,"arrowleft","arrowleft",0,"Congruent",0.12339,"Congruent - Strong","Hard"
"S012","VerticalHorizontal",-0.0581,4.5,"VerticalHorizontal_4.50000_-0.0581.png","A",20,1034978,1.511,"arrowleft","arrowright",1,"Incongruent",0.0581,"Incongruent - Mild","Hard"
"S012","VerticalHorizontal",0.20298,-31.5,"VerticalHorizontal_-31.500_0.20298.png","A",21,1037146,1.452,"arrowleft","arrowleft",0,"Congruent",0.20298,"Congruent - Strong","Easy"
"S012","VerticalHorizontal",-0.20298,-31.5,"VerticalHorizontal_-31.500_-0.20298.png","A",22,1039401,1.032,"arrowleft","arrowright",1,"Congruent",0.20298,"Congruent - Strong","Easy"
"S012","VerticalHorizontal",0.3,22.5,"VerticalHorizontal_22.5000_0.30000.png","A",23,1041448,0.869,"arrowleft","arrowleft",0,"Incongruent",0.3,"Incongruent - Mild","Easy"
"S012","VerticalHorizontal",-0.20298,4.5,"VerticalHorizontal_4.50000_-0.20298.png","A",24,1043280,0.935,"arrowright","arrowright",0,"Incongruent",0.20298,"Incongruent - Mild","Easy"
"S012","VerticalHorizontal",-0.3,-13.5,"VerticalHorizontal_-13.500_-0.3000.png","A",25,1045004,0.684,"arrowright","arrowright",0,"Congruent",0.3,"Congruent - Mild","Easy"
"S012","VerticalHorizontal",0.20298,-22.5,"VerticalHorizontal_-22.500_0.20298.png","A",26,1046479,0.697,"arrowleft","arrowleft",0,"Congruent",0.20298,"Congruent - Mild","Easy"
"S012","VerticalHorizontal",-0.12339,-4.5,"VerticalHorizontal_-4.5000_-0.12339.png","A",27,1047833,0.687,"arrowright","arrowright",0,"Congruent",0.12339,"Congruent - Mild","Hard"
"S012","VerticalHorizontal",0.20298,-4.5,"VerticalHorizontal_-4.5000_0.20298.png","A",28,1049576,0.774,"arrowleft","arrowleft",0,"Congruent",0.20298,"Congruent - Mild","Easy"
"S012","VerticalHorizontal",0.12339,-13.5,"VerticalHorizontal_-13.500_0.12339.png","A",29,1050965,0.748,"arrowleft","arrowleft",0,"Congruent",0.12339,"Congruent - Mild","Hard"
"S012","VerticalHorizontal",0.12339,-22.5,"VerticalHorizontal_-22.500_0.12339.png","A",30,1052378,1.077,"arrowleft","arrowleft",0,"Congruent",0.12339,"Congruent - Mild","Hard"
"S012","VerticalHorizontal",-0.3,-4.5,"VerticalHorizontal_-4.5000_-0.3000.png","A",31,1054359,0.655,"arrowright","arrowright",0,"Congruent",0.3,"Congruent - Mild","Easy"
"S012","VerticalHorizontal",-0.3,-31.5,"VerticalHorizontal_-31.500_-0.3000.png","A",32,1055927,0.689,"arrowright","arrowright",0,"Congruent",0.3,"Congruent - Strong","Easy"
"S012","VerticalHorizontal",-0.12339,22.5,"VerticalHorizontal_22.5000_-0.12339.png","A",33,1057484,1.036,"arrowright","arrowright",0,"Incongruent",0.12339,"Incongruent - Mild","Hard"
"S012","VerticalHorizontal",0.12339,-4.5,"VerticalHorizontal_-4.5000_0.12339.png","A",34,1059403,0.915,"arrowleft","arrowleft",0,"Congruent",0.12339,"Congruent - Mild","Hard"
"S012","VerticalHorizontal",0.3,-22.5,"VerticalHorizontal_-22.500_0.30000.png","A",35,1061179,0.75,"arrowleft","arrowleft",0,"Congruent",0.3,"Congruent - Mild","Easy"
"S012","VerticalHorizontal",-0.3,40.5,"VerticalHorizontal_40.5000_-0.3000.png","A",36,1062661,0.784,"arrowright","arrowright",0,"Incongruent",0.3,"Incongruent - Strong","Easy"
"S012","VerticalHorizontal",-0.3,4.5,"VerticalHorizontal_4.50000_-0.3000.png","A",37,1064183,0.914,"arrowright","arrowright",0,"Incongruent",0.3,"Incongruent - Mild","Easy"
"S012","VerticalHorizontal",-0.12339,-40.5,"VerticalHorizontal_-40.500_-0.12339.png","A",38,1065963,1.37,"arrowright","arrowright",0,"Congruent",0.12339,"Congruent - Strong","Hard"
"S012","VerticalHorizontal",0.0581,22.5,"VerticalHorizontal_22.5000_0.05810.png","A",39,1068015,0.951,"arrowleft","arrowleft",0,"Incongruent",0.0581,"Incongruent - Mild","Hard"
"S012","VerticalHorizontal",-0.3,-22.5,"VerticalHorizontal_-22.500_-0.3000.png","A",40,1070079,0.671,"arrowright","arrowright",0,"Congruent",0.3,"Congruent - Mild","Easy"
"S012","VerticalHorizontal",-0.20298,13.5,"VerticalHorizontal_13.5000_-0.20298.png","A",41,1071772,0.972,"arrowright","arrowright",0,"Incongruent",0.20298,"Incongruent - Mild","Easy"
"S012","VerticalHorizontal",0.0581,-31.5,"VerticalHorizontal_-31.500_0.05810.png","A",42,1073378,0.941,"arrowleft","arrowleft",0,"Congruent",0.0581,"Congruent - Strong","Hard"
"S012","VerticalHorizontal",-0.0581,-31.5,"VerticalHorizontal_-31.500_-0.0581.png","A",43,1075102,2.039,"arrowright","arrowright",0,"Congruent",0.0581,"Congruent - Strong","Hard"
"S012","VerticalHorizontal",0.3,31.5,"VerticalHorizontal_31.5000_0.30000.png","A",44,1077849,1.101,"arrowleft","arrowleft",0,"Incongruent",0.3,"Incongruent - Strong","Easy"
"S012","VerticalHorizontal",0.20298,13.5,"VerticalHorizontal_13.5000_0.20298.png","A",45,1079793,1.632,"arrowleft","arrowleft",0,"Incongruent",0.20298,"Incongruent - Mild","Easy"
"S012","VerticalHorizontal",-0.0581,13.5,"VerticalHorizontal_13.5000_-0.0581.png","A",46,1082217,1.495,"arrowleft","arrowright",1,"Incongruent",0.0581,"Incongruent - Mild","Hard"
"S012","VerticalHorizontal",0.3,40.5,"VerticalHorizontal_40.5000_0.30000.png","A",47,1084379,1.134,"arrowleft","arrowleft",0,"Incongruent",0.3,"Incongruent - Strong","Easy"
"S012","VerticalHorizontal",-0.3,-40.5,"VerticalHorizontal_-40.500_-0.3000.png","A",48,1086278,0.649,"arrowright","arrowright",0,"Congruent",0.3,"Congruent - Strong","Easy"
"S012","VerticalHorizontal",-0.3,13.5,"VerticalHorizontal_13.5000_-0.3000.png","A",49,1087808,0.897,"arrowright","arrowright",0,"Incongruent",0.3,"Incongruent - Mild","Easy"
"S012","VerticalHorizontal",0.12339,40.5,"VerticalHorizontal_40.5000_0.12339.png","A",50,1089416,1.157,"arrowleft","arrowleft",0,"Incongruent",0.12339,"Incongruent - Strong","Hard"
"S012","VerticalHorizontal",0.0581,-22.5,"VerticalHorizontal_-22.500_0.05810.png","A",51,1091228,1.164,"arrowleft","arrowleft",0,"Congruent",0.0581,"Congruent - Mild","Hard"
"S012","VerticalHorizontal",0.0581,-4.5,"VerticalHorizontal_-4.5000_0.05810.png","A",52,1093174,1.72,"arrowleft","arrowleft",0,"Congruent",0.0581,"Congruent - Mild","Hard"
"S012","VerticalHorizontal",0.0581,31.5,"VerticalHorizontal_31.5000_0.05810.png","A",53,1095529,1.724,"arrowright","arrowleft",1,"Incongruent",0.0581,"Incongruent - Strong","Hard"
"S012","VerticalHorizontal",-0.20298,-13.5,"VerticalHorizontal_-13.500_-0.20298.png","A",54,1098345,0.768,"arrowright","arrowright",0,"Congruent",0.20298,"Congruent - Mild","Easy"
"S012","VerticalHorizontal",0.0581,13.5,"VerticalHorizontal_13.5000_0.05810.png","A",55,1099984,0.861,"arrowleft","arrowleft",0,"Incongruent",0.0581,"Incongruent - Mild","Hard"
"S012","VerticalHorizontal",-0.20298,22.5,"VerticalHorizontal_22.5000_-0.20298.png","A",56,1101636,1.331,"arrowright","arrowright",0,"Incongruent",0.20298,"Incongruent - Mild","Easy"
"S012","VerticalHorizontal",0.20298,40.5,"VerticalHorizontal_40.5000_0.20298.png","A",57,1103643,1.019,"arrowleft","arrowleft",0,"Incongruent",0.20298,"Incongruent - Strong","Easy"
"S012","VerticalHorizontal",0.12339,-31.5,"VerticalHorizontal_-31.500_0.12339.png","A",58,1105531,0.817,"arrowright","arrowleft",1,"Congruent",0.12339,"Congruent - Strong","Hard"
"S012","VerticalHorizontal",0.12339,31.5,"VerticalHorizontal_31.5000_0.12339.png","A",59,1107288,3.542,"arrowleft","arrowleft",0,"Incongruent",0.12339,"Incongruent - Strong","Hard"
"S012","VerticalHorizontal",0.20298,-13.5,"VerticalHorizontal_-13.500_0.20298.png","A",60,1111469,0.851,"arrowleft","arrowleft",0,"Congruent",0.20298,"Congruent - Mild","Easy"
"S012","VerticalHorizontal",-0.0581,31.5,"VerticalHorizontal_31.5000_-0.0581.png","A",61,1113486,0.823,"arrowright","arrowright",0,"Incongruent",0.0581,"Incongruent - Strong","Hard"
"S012","VerticalHorizontal",-0.12339,-22.5,"VerticalHorizontal_-22.500_-0.12339.png","A",62,1115096,1.474,"arrowright","arrowright",0,"Congruent",0.12339,"Congruent - Mild","Hard"
"S012","VerticalHorizontal",-0.20298,-40.5,"VerticalHorizontal_-40.500_-0.20298.png","A",63,1117654,0.782,"arrowright","arrowright",0,"Congruent",0.20298,"Congruent - Strong","Easy"
"S012","VerticalHorizontal",-0.3,31.5,"VerticalHorizontal_31.5000_-0.3000.png","A",64,1119192,0.839,"arrowright","arrowright",0,"Incongruent",0.3,"Incongruent - Strong","Easy"
"S012","VerticalHorizontal",0.3,-4.5,"VerticalHorizontal_-4.5000_0.30000.png","A",65,1121067,0.914,"arrowleft","arrowleft",0,"Congruent",0.3,"Congruent - Mild","Easy"
"S012","VerticalHorizontal",0.20298,4.5,"VerticalHorizontal_4.50000_0.20298.png","A",66,1122660,0.98,"arrowleft","arrowleft",0,"Incongruent",0.20298,"Incongruent - Mild","Easy"
"S012","VerticalHorizontal",0.3,4.5,"VerticalHorizontal_4.50000_0.30000.png","A",67,1124548,0.786,"arrowleft","arrowleft",0,"Incongruent",0.3,"Incongruent - Mild","Easy"
"S012","VerticalHorizontal",0.3,-31.5,"VerticalHorizontal_-31.500_0.30000.png","A",68,1126007,0.863,"arrowleft","arrowleft",0,"Congruent",0.3,"Congruent - Strong","Easy"
"S012","VerticalHorizontal",0.12339,13.5,"VerticalHorizontal_13.5000_0.12339.png","A",69,1127851,1.163,"arrowleft","arrowleft",0,"Incongruent",0.12339,"Incongruent - Mild","Hard"
"S012","VerticalHorizontal",-0.12339,40.5,"VerticalHorizontal_40.5000_-0.12339.png","A",70,1129784,0.876,"arrowright","arrowright",0,"Incongruent",0.12339,"Incongruent - Strong","Hard"
"S012","VerticalHorizontal",-0.0581,-4.5,"VerticalHorizontal_-4.5000_-0.0581.png","A",71,1131314,1.016,"arrowright","arrowright",0,"Congruent",0.0581,"Congruent - Mild","Hard"
"S012","VerticalHorizontal",-0.0581,-22.5,"VerticalHorizontal_-22.500_-0.0581.png","A",72,1132971,1.138,"arrowleft","arrowright",1,"Congruent",0.0581,"Congruent - Mild","Hard"
"S012","VerticalHorizontal",0.20298,-40.5,"VerticalHorizontal_-40.500_0.20298.png","A",73,1134732,1.197,"arrowleft","arrowleft",0,"Congruent",0.20298,"Congruent - Strong","Easy"
"S012","VerticalHorizontal",-0.20298,40.5,"VerticalHorizontal_40.5000_-0.20298.png","A",74,1136874,0.899,"arrowright","arrowright",0,"Incongruent",0.20298,"Incongruent - Strong","Easy"
"S012","VerticalHorizontal",-0.12339,-31.5,"VerticalHorizontal_-31.500_-0.12339.png","A",75,1138589,1.082,"arrowright","arrowright",0,"Congruent",0.12339,"Congruent - Strong","Hard"
"S012","VerticalHorizontal",-0.0581,40.5,"VerticalHorizontal_40.5000_-0.0581.png","A",76,1140358,1.559,"arrowleft","arrowright",1,"Incongruent",0.0581,"Incongruent - Strong","Hard"
"S012","VerticalHorizontal",-0.12339,31.5,"VerticalHorizontal_31.5000_-0.12339.png","A",77,1143005,1.833,"arrowleft","arrowright",1,"Incongruent",0.12339,"Incongruent - Strong","Hard"
"S012","VerticalHorizontal",-0.12339,13.5,"VerticalHorizontal_13.5000_-0.12339.png","A",78,1145945,2.548,"arrowleft","arrowright",1,"Incongruent",0.12339,"Incongruent - Mild","Hard"
"S012","VerticalHorizontal",-0.3,22.5,"VerticalHorizontal_22.5000_-0.3000.png","A",79,1149187,0.898,"arrowright","arrowright",0,"Incongruent",0.3,"Incongruent - Mild","Easy"
"S012","VerticalHorizontal",0.20298,31.5,"VerticalHorizontal_31.5000_0.20298.png","A",80,1150920,1.404,"arrowleft","arrowleft",0,"Incongruent",0.20298,"Incongruent - Strong","Easy"
"S012","MullerLyer",-0.045,-6,"MullerLyer_-6.0000_-0.0450.png","B",1,1282004,1.086,"arrowdown","arrowdown",0,"Congruent",0.045,"Congruent - Mild","Hard"
"S012","MullerLyer",-0.24183,-24,"MullerLyer_-24.000_-0.24183.png","B",2,1283875,0.851,"arrowdown","arrowdown",0,"Congruent",0.24183,"Congruent - Strong","Easy"
"S012","MullerLyer",0.1337,-24,"MullerLyer_-24.000_0.13370.png","B",3,1285449,0.93,"arrowup","arrowup",0,"Congruent",0.1337,"Congruent - Strong","Hard"
"S012","MullerLyer",-0.37364,18,"MullerLyer_18.0000_-0.37364.png","B",4,1287119,1.317,"arrowdown","arrowdown",0,"Incongruent",0.37364,"Incongruent - Strong","Easy"
"S012","MullerLyer",0.24183,-24,"MullerLyer_-24.000_0.24183.png","B",5,1289441,1.402,"arrowup","arrowup",0,"Congruent",0.24183,"Congruent - Strong","Easy"
"S012","MullerLyer",0.1337,6,"MullerLyer_6.00000_0.13370.png","B",6,1291705,1.446,"arrowup","arrowup",0,"Incongruent",0.1337,"Incongruent - Mild","Hard"
"S012","MullerLyer",0.24183,-12,"MullerLyer_-12.000_0.24183.png","B",7,1294053,0.951,"arrowup","arrowup",0,"Congruent",0.24183,"Congruent - Mild","Easy"
"S012","MullerLyer",0.045,-30,"MullerLyer_-30.000_0.04500.png","B",8,1295879,1.974,"arrowup","arrowup",0,"Congruent",0.045,"Congruent - Strong","Hard"
"S012","MullerLyer",-0.045,30,"MullerLyer_30.0000_-0.0450.png","B",9,1298963,1.863,"arrowup","arrowdown",1,"Incongruent",0.045,"Incongruent - Strong","Hard"
"S012","MullerLyer",-0.37364,-24,"MullerLyer_-24.000_-0.37364.png","B",10,1301797,1.374,"arrowdown","arrowdown",0,"Congruent",0.37364,"Congruent - Strong","Easy"
"S012","MullerLyer",0.37364,24,"MullerLyer_24.0000_0.37364.png","B",11,1303979,1.748,"arrowdown","arrowup",1,"Incongruent",0.37364,"Incongruent - Strong","Easy"
"S012","MullerLyer",-0.37364,-18,"MullerLyer_-18.000_-0.37364.png","B",12,1306511,0.661,"arrowdown","arrowdown",0,"Congruent",0.37364,"Congruent - Strong","Easy"
"S012","MullerLyer",-0.24183,-18,"MullerLyer_-18.000_-0.24183.png","B",13,1308275,1.859,"arrowdown","arrowdown",0,"Congruent",0.24183,"Congruent - Strong","Easy"
"S012","MullerLyer",0.24183,30,"MullerLyer_30.0000_0.24183.png","B",14,1311035,1.08,"arrowdown","arrowup",1,"Incongruent",0.24183,"Incongruent - Strong","Easy"
"S012","MullerLyer",0.37364,-24,"MullerLyer_-24.000_0.37364.png","B",15,1313037,1.368,"arrowup","arrowup",0,"Congruent",0.37364,"Congruent - Strong","Easy"
"S012","MullerLyer",0.37364,-6,"MullerLyer_-6.0000_0.37364.png","B",16,1315217,0.735,"arrowup","arrowup",0,"Congruent",0.37364,"Congruent - Mild","Easy"
"S012","MullerLyer",0.37364,30,"MullerLyer_30.0000_0.37364.png","B",17,1316953,1.594,"arrowup","arrowup",0,"Incongruent",0.37364,"Incongruent - Strong","Easy"
"S012","MullerLyer",-0.1337,-24,"MullerLyer_-24.000_-0.1337.png","B",18,1319558,0.981,"arrowdown","arrowdown",0,"Congruent",0.1337,"Congruent - Strong","Hard"
"S012","MullerLyer",0.1337,30,"MullerLyer_30.0000_0.13370.png","B",19,1321398,0.872,"arrowdown","arrowup",1,"Incongruent",0.1337,"Incongruent - Strong","Hard"
"S012","MullerLyer",0.1337,12,"MullerLyer_12.0000_0.13370.png","B",20,1323399,2.964,"arrowup","arrowup",0,"Incongruent",0.1337,"Incongruent - Mild","Hard"
"S012","MullerLyer",0.1337,-30,"MullerLyer_-30.000_0.13370.png","B",21,1327436,2.482,"arrowup","arrowup",0,"Congruent",0.1337,"Congruent - Strong","Hard"
"S012","MullerLyer",0.37364,-30,"MullerLyer_-30.000_0.37364.png","B",22,1330739,0.913,"arrowup","arrowup",0,"Congruent",0.37364,"Congruent - Strong","Easy"
"S012","MullerLyer",0.045,12,"MullerLyer_12.0000_0.04500.png","B",23,1332739,1.032,"arrowdown","arrowup",1,"Incongruent",0.045,"Incongruent - Mild","Hard"
"S012","MullerLyer",0.24183,24,"MullerLyer_24.0000_0.24183.png","B",24,1334463,1.736,"arrowdown","arrowup",1,"Incongruent",0.24183,"Incongruent - Strong","Easy"
"S012","MullerLyer",-0.045,18,"MullerLyer_18.0000_-0.0450.png","B",25,1336838,1.845,"arrowup","arrowdown",1,"Incongruent",0.045,"Incongruent - Strong","Hard"
"S012","MullerLyer",-0.1337,12,"MullerLyer_12.0000_-0.1337.png","B",26,1339645,2.184,"arrowup","arrowdown",1,"Incongruent",0.1337,"Incongruent - Mild","Hard"
"S012","MullerLyer",0.1337,24,"MullerLyer_24.0000_0.13370.png","B",27,1342767,1.212,"arrowdown","arrowup",1,"Incongruent",0.1337,"Incongruent - Strong","Hard"
"S012","MullerLyer",0.045,18,"MullerLyer_18.0000_0.04500.png","B",28,1344626,2.155,"arrowdown","arrowup",1,"Incongruent",0.045,"Incongruent - Strong","Hard"
"S012","MullerLyer",-0.37364,-30,"MullerLyer_-30.000_-0.37364.png","B",29,1347636,0.998,"arrowdown","arrowdown",0,"Congruent",0.37364,"Congruent - Strong","Easy"
"S012","MullerLyer",0.045,-12,"MullerLyer_-12.000_0.04500.png","B",30,1349725,1.053,"arrowup","arrowup",0,"Congruent",0.045,"Congruent - Mild","Hard"
"S012","MullerLyer",-0.1337,-30,"MullerLyer_-30.000_-0.1337.png","B",31,1351795,0.878,"arrowdown","arrowdown",0,"Congruent",0.1337,"Congruent - Strong","Hard"
"S012","MullerLyer",-0.37364,30,"MullerLyer_30.0000_-0.37364.png","B",32,1353367,1.326,"arrowdown","arrowdown",0,"Incongruent",0.37364,"Incongruent - Strong","Easy"
"S012","MullerLyer",-0.24183,24,"MullerLyer_24.0000_-0.24183.png","B",33,1355478,0.956,"arrowup","arrowdown",1,"Incongruent",0.24183,"Incongruent - Strong","Easy"
"S012","MullerLyer",0.1337,-18,"MullerLyer_-18.000_0.13370.png","B",34,1357305,0.941,"arrowup","arrowup",0,"Congruent",0.1337,"Congruent - Strong","Hard"
"S012","MullerLyer",-0.24183,6,"MullerLyer_6.00000_-0.24183.png","B",35,1358954,0.858,"arrowdown","arrowdown",0,"Incongruent",0.24183,"Incongruent - Mild","Easy"
"S012","MullerLyer",-0.1337,-6,"MullerLyer_-6.0000_-0.1337.png","B",36,1360762,0.82,"arrowdown","arrowdown",0,"Congruent",0.1337,"Congruent - Mild","Hard"
"S012","MullerLyer",0.045,30,"MullerLyer_30.0000_0.04500.png","B",37,1362220,1.119,"arrowdown","arrowup",1,"Incongruent",0.045,"Incongruent - Strong","Hard"
"S012","MullerLyer",-0.045,6,"MullerLyer_6.00000_-0.0450.png","B",38,1363993,1.049,"arrowup","arrowdown",1,"Incongruent",0.045,"Incongruent - Mild","Hard"
"S012","MullerLyer",-0.045,-12,"MullerLyer_-12.000_-0.0450.png","B",39,1365966,0.813,"arrowdown","arrowdown",0,"Congruent",0.045,"Congruent - Mild","Hard"
"S012","MullerLyer",0.37364,-12,"MullerLyer_-12.000_0.37364.png","B",40,1367478,0.836,"arrowup","arrowup",0,"Congruent",0.37364,"Congruent - Mild","Easy"
"S012","MullerLyer",-0.1337,6,"MullerLyer_6.00000_-0.1337.png","B",41,1369071,1.507,"arrowdown","arrowdown",0,"Incongruent",0.1337,"Incongruent - Mild","Hard"
"S012","MullerLyer",0.37364,6,"MullerLyer_6.00000_0.37364.png","B",42,1371548,0.847,"arrowup","arrowup",0,"Incongruent",0.37364,"Incongruent - Mild","Easy"
"S012","MullerLyer",-0.24183,30,"MullerLyer_30.0000_-0.24183.png","B",43,1373024,2.25,"arrowdown","arrowdown",0,"Incongruent",0.24183,"Incongruent - Strong","Easy"
"S012","MullerLyer",-0.37364,-12,"MullerLyer_-12.000_-0.37364.png","B",44,1376111,0.903,"arrowdown","arrowdown",0,"Congruent",0.37364,"Congruent - Mild","Easy"
"S012","MullerLyer",-0.1337,18,"MullerLyer_18.0000_-0.1337.png","B",45,1377921,1.249,"arrowup","arrowdown",1,"Incongruent",0.1337,"Incongruent - Strong","Hard"
"S012","MullerLyer",-0.1337,30,"MullerLyer_30.0000_-0.1337.png","B",46,1380167,2.755,"arrowdown","arrowdown",0,"Incongruent",0.1337,"Incongruent - Strong","Hard"
"S012","MullerLyer",0.1337,-6,"MullerLyer_-6.0000_0.13370.png","B",47,1383966,1.316,"arrowup","arrowup",0,"Congruent",0.1337,"Congruent - Mild","Hard"
"S012","MullerLyer",0.1337,-12,"MullerLyer_-12.000_0.13370.png","B",48,1386235,1.21,"arrowup","arrowup",0,"Congruent",0.1337,"Congruent - Mild","Hard"
"S012","MullerLyer",0.24183,6,"MullerLyer_6.00000_0.24183.png","B",49,1388299,1.007,"arrowup","arrowup",0,"Incongruent",0.24183,"Incongruent - Mild","Easy"
"S012","MullerLyer",0.045,6,"MullerLyer_6.00000_0.04500.png","B",50,1390139,1.096,"arrowdown","arrowup",1,"Incongruent",0.045,"Incongruent - Mild","Hard"
"S012","MullerLyer",-0.37364,12,"MullerLyer_12.0000_-0.37364.png","B",51,1392311,0.981,"arrowdown","arrowdown",0,"Incongruent",0.37364,"Incongruent - Mild","Easy"
"S012","MullerLyer",-0.045,12,"MullerLyer_12.0000_-0.0450.png","B",52,1394366,1.229,"arrowup","arrowdown",1,"Incongruent",0.045,"Incongruent - Mild","Hard"
"S012","MullerLyer",-0.37364,6,"MullerLyer_6.00000_-0.37364.png","B",53,1396257,1.33,"arrowdown","arrowdown",0,"Incongruent",0.37364,"Incongruent - Mild","Easy"
"S012","MullerLyer",0.045,-6,"MullerLyer_-6.0000_0.04500.png","B",54,1398635,2.318,"arrowup","arrowup",0,"Congruent",0.045,"Congruent - Mild","Hard"
"S012","MullerLyer",-0.045,24,"MullerLyer_24.0000_-0.0450.png","B",55,1402056,0.87,"arrowup","arrowdown",1,"Incongruent",0.045,"Incongruent - Strong","Hard"
"S012","MullerLyer",-0.1337,24,"MullerLyer_24.0000_-0.1337.png","B",56,1403755,2.153,"arrowdown","arrowdown",0,"Incongruent",0.1337,"Incongruent - Strong","Hard"
"S012","MullerLyer",0.045,-24,"MullerLyer_-24.000_0.04500.png","B",57,1406894,0.963,"arrowup","arrowup",0,"Congruent",0.045,"Congruent - Strong","Hard"
"S012","MullerLyer",-0.24183,18,"MullerLyer_18.0000_-0.24183.png","B",58,1408770,1.262,"arrowdown","arrowdown",0,"Incongruent",0.24183,"Incongruent - Strong","Easy"
"S012","MullerLyer",-0.045,-30,"MullerLyer_-30.000_-0.0450.png","B",59,1411020,0.976,"arrowdown","arrowdown",0,"Congruent",0.045,"Congruent - Strong","Hard"
"S012","MullerLyer",-0.24183,-6,"MullerLyer_-6.0000_-0.24183.png","B",60,1412614,1.002,"arrowdown","arrowdown",0,"Congruent",0.24183,"Congruent - Mild","Easy"
"S012","MullerLyer",0.24183,18,"MullerLyer_18.0000_0.24183.png","B",61,1414372,1.872,"arrowdown","arrowup",1,"Incongruent",0.24183,"Incongruent - Strong","Easy"
"S012","MullerLyer",-0.37364,24,"MullerLyer_24.0000_-0.37364.png","B",62,1416904,1.825,"arrowdown","arrowdown",0,"Incongruent",0.37364,"Incongruent - Strong","Easy"
"S012","MullerLyer",-0.045,-18,"MullerLyer_-18.000_-0.0450.png","B",63,1419697,1.898,"arrowdown","arrowdown",0,"Congruent",0.045,"Congruent - Strong","Hard"
"S012","MullerLyer",0.24183,12,"MullerLyer_12.0000_0.24183.png","B",64,1422460,1.133,"arrowup","arrowup",0,"Incongruent",0.24183,"Incongruent - Mild","Easy"
"S012","MullerLyer",-0.24183,-30,"MullerLyer_-30.000_-0.24183.png","B",65,1424689,0.896,"arrowdown","arrowdown",0,"Congruent",0.24183,"Congruent - Strong","Easy"
"S012","MullerLyer",0.24183,-18,"MullerLyer_-18.000_0.24183.png","B",66,1426235,0.854,"arrowup","arrowup",0,"Congruent",0.24183,"Congruent - Strong","Easy"
"S012","MullerLyer",0.24183,-30,"MullerLyer_-30.000_0.24183.png","B",67,1427842,0.922,"arrowup","arrowup",0,"Congruent",0.24183,"Congruent - Strong","Easy"
"S012","MullerLyer",0.045,-18,"MullerLyer_-18.000_0.04500.png","B",68,1429401,0.721,"arrowup","arrowup",0,"Congruent",0.045,"Congruent - Strong","Hard"
"S012","MullerLyer",-0.1337,-12,"MullerLyer_-12.000_-0.1337.png","B",69,1431025,0.855,"arrowdown","arrowdown",0,"Congruent",0.1337,"Congruent - Mild","Hard"
"S012","MullerLyer",0.1337,18,"MullerLyer_18.0000_0.13370.png","B",70,1432678,1.008,"arrowdown","arrowup",1,"Incongruent",0.1337,"Incongruent - Strong","Hard"
"S012","MullerLyer",-0.37364,-6,"MullerLyer_-6.0000_-0.37364.png","B",71,1434356,1.213,"arrowdown","arrowdown",0,"Congruent",0.37364,"Congruent - Mild","Easy"
"S012","MullerLyer",0.24183,-6,"MullerLyer_-6.0000_0.24183.png","B",72,1436458,0.943,"arrowup","arrowup",0,"Congruent",0.24183,"Congruent - Mild","Easy"
"S012","MullerLyer",-0.1337,-18,"MullerLyer_-18.000_-0.1337.png","B",73,1438165,1.78,"arrowdown","arrowdown",0,"Congruent",0.1337,"Congruent - Strong","Hard"
"S012","MullerLyer",0.37364,12,"MullerLyer_12.0000_0.37364.png","B",74,1440704,0.9,"arrowup","arrowup",0,"Incongruent",0.37364,"Incongruent - Mild","Easy"
"S012","MullerLyer",0.37364,-18,"MullerLyer_-18.000_0.37364.png","B",75,1442493,0.862,"arrowup","arrowup",0,"Congruent",0.37364,"Congruent - Strong","Easy"
"S012","MullerLyer",-0.24183,12,"MullerLyer_12.0000_-0.24183.png","B",76,1444059,2.053,"arrowdown","arrowdown",0,"Incongruent",0.24183,"Incongruent - Mild","Easy"
"S012","MullerLyer",0.37364,18,"MullerLyer_18.0000_0.37364.png","B",77,1446982,1.165,"arrowup","arrowup",0,"Incongruent",0.37364,"Incongruent - Strong","Easy"
"S012","MullerLyer",-0.24183,-12,"MullerLyer_-12.000_-0.24183.png","B",78,1449254,1.164,"arrowdown","arrowdown",0,"Congruent",0.24183,"Congruent - Mild","Easy"
"S012","MullerLyer",-0.045,-24,"MullerLyer_-24.000_-0.0450.png","B",79,1451267,1.03,"arrowdown","arrowdown",0,"Congruent",0.045,"Congruent - Strong","Hard"
"S012","MullerLyer",0.045,24,"MullerLyer_24.0000_0.04500.png","B",80,1453014,1.074,"arrowdown","arrowup",1,"Incongruent",0.045,"Incongruent - Strong","Hard"
"S012","Ebbinghaus",-0.14856,1.2,"Ebbinghaus_1.20000_-0.14856.png","B",1,1466583,1.53,"arrowleft","arrowright",1,"Incongruent",0.14856,"Incongruent - Strong","Hard"
"S012","Ebbinghaus",0.41515,-1.5,"Ebbinghaus_-1.5000_0.41515.png","B",2,1469209,0.811,"arrowleft","arrowleft",0,"Congruent",0.41515,"Congruent - Strong","Easy"
"S012","Ebbinghaus",-0.2687,-0.6,"Ebbinghaus_-0.6000_-0.2687.png","B",3,1470987,0.823,"arrowright","arrowright",0,"Congruent",0.2687,"Congruent - Mild","Easy"
"S012","Ebbinghaus",-0.14856,0.3,"Ebbinghaus_0.30000_-0.14856.png","B",4,1472476,1.445,"arrowleft","arrowright",1,"Incongruent",0.14856,"Incongruent - Mild","Hard"
"S012","Ebbinghaus",0.41515,-0.9,"Ebbinghaus_-0.9000_0.41515.png","B",5,1474795,0.745,"arrowleft","arrowleft",0,"Congruent",0.41515,"Congruent - Strong","Easy"
"S012","Ebbinghaus",0.41515,0.6,"Ebbinghaus_0.60000_0.41515.png","B",6,1476211,1.654,"arrowleft","arrowleft",0,"Incongruent",0.41515,"Incongruent - Mild","Easy"
"S012","Ebbinghaus",-0.05,-0.6,"Ebbinghaus_-0.6000_-0.0500.png","B",7,1478624,1.064,"arrowright","arrowright",0,"Congruent",0.05,"Congruent - Mild","Hard"
"S012","Ebbinghaus",-0.05,0.3,"Ebbinghaus_0.30000_-0.0500.png","B",8,1480619,1.726,"arrowleft","arrowright",1,"Incongruent",0.05,"Incongruent - Mild","Hard"
"S012","Ebbinghaus",0.05,-0.3,"Ebbinghaus_-0.3000_0.05000.png","B",9,1483046,2.207,"arrowleft","arrowleft",0,"Congruent",0.05,"Congruent - Mild","Hard"
"S012","Ebbinghaus",-0.2687,0.6,"Ebbinghaus_0.60000_-0.2687.png","B",10,1486189,0.764,"arrowright","arrowright",0,"Incongruent",0.2687,"Incongruent - Mild","Easy"
"S012","Ebbinghaus",0.14856,-0.3,"Ebbinghaus_-0.3000_0.14856.png","B",11,1487773,0.91,"arrowleft","arrowleft",0,"Congruent",0.14856,"Congruent - Mild","Hard"
"S012","Ebbinghaus",-0.41515,-0.6,"Ebbinghaus_-0.6000_-0.41515.png","B",12,1489401,0.775,"arrowright","arrowright",0,"Congruent",0.41515,"Congruent - Mild","Easy"
"S012","Ebbinghaus",-0.41515,-0.3,"Ebbinghaus_-0.3000_-0.41515.png","B",13,1491200,0.885,"arrowright","arrowright",0,"Congruent",0.41515,"Congruent - Mild","Easy"
"S012","Ebbinghaus",0.14856,-1.2,"Ebbinghaus_-1.2000_0.14856.png","B",14,1492824,0.906,"arrowleft","arrowleft",0,"Congruent",0.14856,"Congruent - Strong","Hard"
"S012","Ebbinghaus",-0.41515,-1.2,"Ebbinghaus_-1.2000_-0.41515.png","B",15,1494830,1.17,"arrowright","arrowright",0,"Congruent",0.41515,"Congruent - Strong","Easy"
"S012","Ebbinghaus",0.2687,0.6,"Ebbinghaus_0.60000_0.26870.png","B",16,1496639,2.155,"arrowleft","arrowleft",0,"Incongruent",0.2687,"Incongruent - Mild","Easy"
"S012","Ebbinghaus",-0.14856,0.9,"Ebbinghaus_0.90000_-0.14856.png","B",17,1499662,1.446,"arrowleft","arrowright",1,"Incongruent",0.14856,"Incongruent - Strong","Hard"
"S012","Ebbinghaus",0.05,-0.6,"Ebbinghaus_-0.6000_0.05000.png","B",18,1502001,1.544,"arrowleft","arrowleft",0,"Congruent",0.05,"Congruent - Mild","Hard"
"S012","Ebbinghaus",0.2687,0.3,"Ebbinghaus_0.30000_0.26870.png","B",19,1504236,1.323,"arrowleft","arrowleft",0,"Incongruent",0.2687,"Incongruent - Mild","Easy"
"S012","Ebbinghaus",0.2687,1.5,"Ebbinghaus_1.50000_0.26870.png","B",20,1506469,0.901,"arrowright","arrowleft",1,"Incongruent",0.2687,"Incongruent - Strong","Easy"
"S012","Ebbinghaus",-0.2687,0.3,"Ebbinghaus_0.30000_-0.2687.png","B",21,1508234,1.321,"arrowright","arrowright",0,"Incongruent",0.2687,"Incongruent - Mild","Easy"
"S012","Ebbinghaus",-0.14856,-1.5,"Ebbinghaus_-1.5000_-0.14856.png","B",22,1510314,1.143,"arrowright","arrowright",0,"Congruent",0.14856,"Congruent - Strong","Hard"
"S012","Ebbinghaus",-0.14856,-0.3,"Ebbinghaus_-0.3000_-0.14856.png","B",23,1512198,0.902,"arrowright","arrowright",0,"Congruent",0.14856,"Congruent - Mild","Hard"
"S012","Ebbinghaus",-0.2687,1.5,"Ebbinghaus_1.50000_-0.2687.png","B",24,1514068,0.87,"arrowleft","arrowright",1,"Incongruent",0.2687,"Incongruent - Strong","Easy"
"S012","Ebbinghaus",-0.41515,-1.5,"Ebbinghaus_-1.5000_-0.41515.png","B",25,1515908,0.924,"arrowright","arrowright",0,"Congruent",0.41515,"Congruent - Strong","Easy"
"S012","Ebbinghaus",0.41515,0.9,"Ebbinghaus_0.90000_0.41515.png","B",26,1517512,1.316,"arrowright","arrowleft",1,"Incongruent",0.41515,"Incongruent - Strong","Easy"
"S012","Ebbinghaus",-0.2687,-0.3,"Ebbinghaus_-0.3000_-0.2687.png","B",27,1519527,1.355,"arrowright","arrowright",0,"Congruent",0.2687,"Congruent - Mild","Easy"
"S012","Ebbinghaus",-0.14856,-1.2,"Ebbinghaus_-1.2000_-0.14856.png","B",28,1521657,0.923,"arrowright","arrowright",0,"Congruent",0.14856,"Congruent - Strong","Hard"
"S012","Ebbinghaus",0.14856,0.3,"Ebbinghaus_0.30000_0.14856.png","B",29,1523415,1.227,"arrowleft","arrowleft",0,"Incongruent",0.14856,"Incongruent - Mild","Hard"
"S012","Ebbinghaus",0.2687,-0.3,"Ebbinghaus_-0.3000_0.26870.png","B",30,1525416,0.956,"arrowleft","arrowleft",0,"Congruent",0.2687,"Congruent - Mild","Easy"
"S012","Ebbinghaus",-0.05,0.6,"Ebbinghaus_0.60000_-0.0500.png","B",31,1527050,1.237,"arrowright","arrowright",0,"Incongruent",0.05,"Incongruent - Mild","Hard"
"S012","Ebbinghaus",-0.2687,0.9,"Ebbinghaus_0.90000_-0.2687.png","B",32,1529362,1.478,"arrowleft","arrowright",1,"Incongruent",0.2687,"Incongruent - Strong","Easy"
"S012","Ebbinghaus",0.05,1.5,"Ebbinghaus_1.50000_0.05000.png","B",33,1531938,0.977,"arrowright","arrowleft",1,"Incongruent",0.05,"Incongruent - Strong","Hard"
"S012","Ebbinghaus",0.05,0.6,"Ebbinghaus_0.60000_0.05000.png","B",34,1533786,1.713,"arrowright","arrowleft",1,"Incongruent",0.05,"Incongruent - Mild","Hard"
"S012","Ebbinghaus",-0.41515,1.5,"Ebbinghaus_1.50000_-0.41515.png","B",35,1536337,1.225,"arrowright","arrowright",0,"Incongruent",0.41515,"Incongruent - Strong","Easy"
"S012","Ebbinghaus",0.2687,1.2,"Ebbinghaus_1.20000_0.26870.png","B",36,1538491,1.289,"arrowright","arrowleft",1,"Incongruent",0.2687,"Incongruent - Strong","Easy"
"S012","Ebbinghaus",-0.41515,-0.9,"Ebbinghaus_-0.9000_-0.41515.png","B",37,1540446,0.923,"arrowright","arrowright",0,"Congruent",0.41515,"Congruent - Strong","Easy"
"S012","Ebbinghaus",-0.05,1.2,"Ebbinghaus_1.20000_-0.0500.png","B",38,1542440,1.001,"arrowleft","arrowright",1,"Incongruent",0.05,"Incongruent - Strong","Hard"
"S012","Ebbinghaus",-0.05,0.9,"Ebbinghaus_0.90000_-0.0500.png","B",39,1544321,1.523,"arrowleft","arrowright",1,"Incongruent",0.05,"Incongruent - Strong","Hard"
"S012","Ebbinghaus",0.14856,1.5,"Ebbinghaus_1.50000_0.14856.png","B",40,1546677,1.204,"arrowright","arrowleft",1,"Incongruent",0.14856,"Incongruent - Strong","Hard"
"S012","Ebbinghaus",0.41515,0.3,"Ebbinghaus_0.30000_0.41515.png","B",41,1548695,0.997,"arrowright","arrowleft",1,"Incongruent",0.41515,"Incongruent - Mild","Easy"
"S012","Ebbinghaus",0.2687,-0.6,"Ebbinghaus_-0.6000_0.26870.png","B",42,1550333,1.427,"arrowleft","arrowleft",0,"Congruent",0.2687,"Congruent - Mild","Easy"
"S012","Ebbinghaus",0.14856,-0.6,"Ebbinghaus_-0.6000_0.14856.png","B",43,1552589,0.934,"arrowleft","arrowleft",0,"Congruent",0.14856,"Congruent - Mild","Hard"
"S012","Ebbinghaus",-0.41515,0.6,"Ebbinghaus_0.60000_-0.41515.png","B",44,1554309,1.109,"arrowright","arrowright",0,"Incongruent",0.41515,"Incongruent - Mild","Easy"
"S012","Ebbinghaus",0.2687,0.9,"Ebbinghaus_0.90000_0.26870.png","B",45,1556212,1.476,"arrowleft","arrowleft",0,"Incongruent",0.2687,"Incongruent - Strong","Easy"
"S012","Ebbinghaus",0.05,0.3,"Ebbinghaus_0.30000_0.05000.png","B",46,1558417,0.782,"arrowright","arrowleft",1,"Incongruent",0.05,"Incongruent - Mild","Hard"
"S012","Ebbinghaus",-0.41515,1.2,"Ebbinghaus_1.20000_-0.41515.png","B",47,1560028,1.903,"arrowright","arrowright",0,"Incongruent",0.41515,"Incongruent - Strong","Easy"
"S012","Ebbinghaus",-0.14856,-0.9,"Ebbinghaus_-0.9000_-0.14856.png","B",48,1563078,0.924,"arrowright","arrowright",0,"Congruent",0.14856,"Congruent - Strong","Hard"
"S012","Ebbinghaus",-0.2687,1.2,"Ebbinghaus_1.20000_-0.2687.png","B",49,1564728,1.204,"arrowright","arrowright",0,"Incongruent",0.2687,"Incongruent - Strong","Easy"
"S012","Ebbinghaus",-0.14856,0.6,"Ebbinghaus_0.60000_-0.14856.png","B",50,1567042,1.093,"arrowleft","arrowright",1,"Incongruent",0.14856,"Incongruent - Mild","Hard"
"S012","Ebbinghaus",0.05,0.9,"Ebbinghaus_0.90000_0.05000.png","B",51,1568807,1.953,"arrowright","arrowleft",1,"Incongruent",0.05,"Incongruent - Strong","Hard"
"S012","Ebbinghaus",0.41515,-0.6,"Ebbinghaus_-0.6000_0.41515.png","B",52,1571595,0.877,"arrowleft","arrowleft",0,"Congruent",0.41515,"Congruent - Mild","Easy"
"S012","Ebbinghaus",0.14856,-0.9,"Ebbinghaus_-0.9000_0.14856.png","B",53,1573568,0.955,"arrowleft","arrowleft",0,"Congruent",0.14856,"Congruent - Strong","Hard"
"S012","Ebbinghaus",0.41515,-0.3,"Ebbinghaus_-0.3000_0.41515.png","B",54,1575327,1.199,"arrowleft","arrowleft",0,"Congruent",0.41515,"Congruent - Mild","Easy"
"S012","Ebbinghaus",0.14856,-1.5,"Ebbinghaus_-1.5000_0.14856.png","B",55,1577229,1.125,"arrowleft","arrowleft",0,"Congruent",0.14856,"Congruent - Strong","Hard"
"S012","Ebbinghaus",-0.05,-0.3,"Ebbinghaus_-0.3000_-0.0500.png","B",56,1579038,1.25,"arrowright","arrowright",0,"Congruent",0.05,"Congruent - Mild","Hard"
"S012","Ebbinghaus",-0.41515,0.9,"Ebbinghaus_0.90000_-0.41515.png","B",57,1581089,1.424,"arrowright","arrowright",0,"Incongruent",0.41515,"Incongruent - Strong","Easy"
"S012","Ebbinghaus",0.05,1.2,"Ebbinghaus_1.20000_0.05000.png","B",58,1583419,1.195,"arrowright","arrowleft",1,"Incongruent",0.05,"Incongruent - Strong","Hard"
"S012","Ebbinghaus",-0.05,1.5,"Ebbinghaus_1.50000_-0.0500.png","B",59,1585527,0.92,"arrowleft","arrowright",1,"Incongruent",0.05,"Incongruent - Strong","Hard"
"S012","Ebbinghaus",0.2687,-1.5,"Ebbinghaus_-1.5000_0.26870.png","B",60,1587432,0.865,"arrowleft","arrowleft",0,"Congruent",0.2687,"Congruent - Strong","Easy"
"S012","Ebbinghaus",0.14856,1.2,"Ebbinghaus_1.20000_0.14856.png","B",61,1589455,0.858,"arrowright","arrowleft",1,"Incongruent",0.14856,"Incongruent - Strong","Hard"
"S012","Ebbinghaus",0.14856,0.9,"Ebbinghaus_0.90000_0.14856.png","B",62,1591231,1.117,"arrowright","arrowleft",1,"Incongruent",0.14856,"Incongruent - Strong","Hard"
"S012","Ebbinghaus",-0.2687,-1.2,"Ebbinghaus_-1.2000_-0.2687.png","B",63,1593352,0.904,"arrowright","arrowright",0,"Congruent",0.2687,"Congruent - Strong","Easy"
"S012","Ebbinghaus",-0.05,-0.9,"Ebbinghaus_-0.9000_-0.0500.png","B",64,1595190,0.893,"arrowright","arrowright",0,"Congruent",0.05,"Congruent - Strong","Hard"
"S012","Ebbinghaus",0.05,-1.2,"Ebbinghaus_-1.2000_0.05000.png","B",65,1597192,0.936,"arrowleft","arrowleft",0,"Congruent",0.05,"Congruent - Strong","Hard"
"S012","Ebbinghaus",-0.14856,1.5,"Ebbinghaus_1.50000_-0.14856.png","B",66,1598967,1.437,"arrowleft","arrowright",1,"Incongruent",0.14856,"Incongruent - Strong","Hard"
"S012","Ebbinghaus",-0.2687,-1.5,"Ebbinghaus_-1.5000_-0.2687.png","B",67,1601337,0.918,"arrowright","arrowright",0,"Congruent",0.2687,"Congruent - Strong","Easy"
"S012","Ebbinghaus",-0.05,-1.5,"Ebbinghaus_-1.5000_-0.0500.png","B",68,1602898,0.872,"arrowright","arrowright",0,"Congruent",0.05,"Congruent - Strong","Hard"
"S012","Ebbinghaus",0.05,-1.5,"Ebbinghaus_-1.5000_0.05000.png","B",69,1604610,0.871,"arrowleft","arrowleft",0,"Congruent",0.05,"Congruent - Strong","Hard"
"S012","Ebbinghaus",0.41515,1.5,"Ebbinghaus_1.50000_0.41515.png","B",70,1606591,1.42,"arrowleft","arrowleft",0,"Incongruent",0.41515,"Incongruent - Strong","Easy"
"S012","Ebbinghaus",-0.41515,0.3,"Ebbinghaus_0.30000_-0.41515.png","B",71,1609019,1.095,"arrowright","arrowright",0,"Incongruent",0.41515,"Incongruent - Mild","Easy"
"S012","Ebbinghaus",0.2687,-1.2,"Ebbinghaus_-1.2000_0.26870.png","B",72,1611081,0.759,"arrowleft","arrowleft",0,"Congruent",0.2687,"Congruent - Strong","Easy"
"S012","Ebbinghaus",0.41515,-1.2,"Ebbinghaus_-1.2000_0.41515.png","B",73,1612934,0.812,"arrowleft","arrowleft",0,"Congruent",0.41515,"Congruent - Strong","Easy"
"S012","Ebbinghaus",0.2687,-0.9,"Ebbinghaus_-0.9000_0.26870.png","B",74,1614421,1.229,"arrowleft","arrowleft",0,"Congruent",0.2687,"Congruent - Strong","Easy"
"S012","Ebbinghaus",-0.2687,-0.9,"Ebbinghaus_-0.9000_-0.2687.png","B",75,1616615,0.729,"arrowright","arrowright",0,"Congruent",0.2687,"Congruent - Strong","Easy"
"S012","Ebbinghaus",0.41515,1.2,"Ebbinghaus_1.20000_0.41515.png","B",76,1618377,1.154,"arrowright","arrowleft",1,"Incongruent",0.41515,"Incongruent - Strong","Easy"
"S012","Ebbinghaus",0.05,-0.9,"Ebbinghaus_-0.9000_0.05000.png","B",77,1620561,1.046,"arrowleft","arrowleft",0,"Congruent",0.05,"Congruent - Strong","Hard"
"S012","Ebbinghaus",-0.05,-1.2,"Ebbinghaus_-1.2000_-0.0500.png","B",78,1622696,0.847,"arrowright","arrowright",0,"Congruent",0.05,"Congruent - Strong","Hard"
"S012","Ebbinghaus",0.14856,0.6,"Ebbinghaus_0.60000_0.14856.png","B",79,1624538,0.961,"arrowright","arrowleft",1,"Incongruent",0.14856,"Incongruent - Mild","Hard"
"S012","Ebbinghaus",-0.14856,-0.6,"Ebbinghaus_-0.6000_-0.14856.png","B",80,1626513,0.949,"arrowright","arrowright",0,"Congruent",0.14856,"Congruent - Mild","Hard"
"S012","VerticalHorizontal",0.24909,27,"VerticalHorizontal_27.0000_0.24909.png","B",1,1634884,1.049,"arrowleft","arrowleft",0,"Incongruent",0.24909,"Incongruent - Strong","Easy"
"S012","VerticalHorizontal",0.24909,-9,"VerticalHorizontal_-9.0000_0.24909.png","B",2,1636603,0.655,"arrowleft","arrowleft",0,"Congruent",0.24909,"Congruent - Mild","Easy"
"S012","VerticalHorizontal",-0.16122,-45,"VerticalHorizontal_-45.000_-0.16122.png","B",3,1638350,0.537,"arrowright","arrowright",0,"Congruent",0.16122,"Congruent - Strong","Easy"
"S012","VerticalHorizontal",0.08913,-27,"VerticalHorizontal_-27.000_0.08913.png","B",4,1639925,0.849,"arrowleft","arrowleft",0,"Congruent",0.08913,"Congruent - Strong","Hard"
"S012","VerticalHorizontal",0.08913,18,"VerticalHorizontal_18.0000_0.08913.png","B",5,1641477,1.179,"arrowright","arrowleft",1,"Incongruent",0.08913,"Incongruent - Mild","Hard"
"S012","VerticalHorizontal",-0.24909,9,"VerticalHorizontal_9.00000_-0.24909.png","B",6,1643735,1.065,"arrowleft","arrowright",1,"Incongruent",0.24909,"Incongruent - Mild","Easy"
"S012","VerticalHorizontal",0.16122,-45,"VerticalHorizontal_-45.000_0.16122.png","B",7,1645496,0.866,"arrowleft","arrowleft",0,"Congruent",0.16122,"Congruent - Strong","Easy"
"S012","VerticalHorizontal",0.03,-18,"VerticalHorizontal_-18.000_0.03000.png","B",8,1647086,0.713,"arrowleft","arrowleft",0,"Congruent",0.03,"Congruent - Mild","Hard"
"S012","VerticalHorizontal",-0.16122,27,"VerticalHorizontal_27.0000_-0.16122.png","B",9,1648638,0.754,"arrowright","arrowright",0,"Incongruent",0.16122,"Incongruent - Strong","Easy"
"S012","VerticalHorizontal",-0.03,18,"VerticalHorizontal_18.0000_-0.0300.png","B",10,1650340,2.107,"arrowleft","arrowright",1,"Incongruent",0.03,"Incongruent - Mild","Hard"
"S012","VerticalHorizontal",-0.08913,-9,"VerticalHorizontal_-9.0000_-0.08913.png","B",11,1653495,1.57,"arrowleft","arrowright",1,"Congruent",0.08913,"Congruent - Mild","Hard"
"S012","VerticalHorizontal",-0.08913,18,"VerticalHorizontal_18.0000_-0.08913.png","B",12,1656113,1.373,"arrowright","arrowright",0,"Incongruent",0.08913,"Incongruent - Mild","Hard"
"S012","VerticalHorizontal",0.16122,18,"VerticalHorizontal_18.0000_0.16122.png","B",13,1658229,0.914,"arrowleft","arrowleft",0,"Incongruent",0.16122,"Incongruent - Mild","Easy"
"S012","VerticalHorizontal",0.03,36,"VerticalHorizontal_36.0000_0.03000.png","B",14,1660185,0.749,"arrowright","arrowleft",1,"Incongruent",0.03,"Incongruent - Strong","Hard"
"S012","VerticalHorizontal",0.24909,36,"VerticalHorizontal_36.0000_0.24909.png","B",15,1661998,0.896,"arrowleft","arrowleft",0,"Incongruent",0.24909,"Incongruent - Strong","Easy"
"S012","VerticalHorizontal",0.16122,-9,"VerticalHorizontal_-9.0000_0.16122.png","B",16,1663621,1.998,"arrowleft","arrowleft",0,"Congruent",0.16122,"Congruent - Mild","Easy"
"S012","VerticalHorizontal",-0.16122,-27,"VerticalHorizontal_-27.000_-0.16122.png","B",17,1666597,0.657,"arrowright","arrowright",0,"Congruent",0.16122,"Congruent - Strong","Easy"
"S012","VerticalHorizontal",-0.16122,45,"VerticalHorizontal_45.0000_-0.16122.png","B",18,1667932,1.364,"arrowright","arrowright",0,"Incongruent",0.16122,"Incongruent - Strong","Easy"
"S012","VerticalHorizontal",0.03,45,"VerticalHorizontal_45.0000_0.03000.png","B",19,1670364,1.069,"arrowleft","arrowleft",0,"Incongruent",0.03,"Incongruent - Strong","Hard"
"S012","VerticalHorizontal",-0.16122,36,"VerticalHorizontal_36.0000_-0.16122.png","B",20,1672136,1.559,"arrowright","arrowright",0,"Incongruent",0.16122,"Incongruent - Strong","Easy"
"S012","VerticalHorizontal",0.03,18,"VerticalHorizontal_18.0000_0.03000.png","B",21,1674698,0.998,"arrowleft","arrowleft",0,"Incongruent",0.03,"Incongruent - Mild","Hard"
"S012","VerticalHorizontal",-0.24909,36,"VerticalHorizontal_36.0000_-0.24909.png","B",22,1676552,0.815,"arrowright","arrowright",0,"Incongruent",0.24909,"Incongruent - Strong","Easy"
"S012","VerticalHorizontal",-0.03,36,"VerticalHorizontal_36.0000_-0.0300.png","B",23,1678153,0.895,"arrowleft","arrowright",1,"Incongruent",0.03,"Incongruent - Strong","Hard"
"S012","VerticalHorizontal",-0.08913,36,"VerticalHorizontal_36.0000_-0.08913.png","B",24,1679880,1.409,"arrowleft","arrowright",1,"Incongruent",0.08913,"Incongruent - Strong","Hard"
"S012","VerticalHorizontal",-0.08913,9,"VerticalHorizontal_9.00000_-0.08913.png","B",25,1682215,1.535,"arrowleft","arrowright",1,"Incongruent",0.08913,"Incongruent - Mild","Hard"
"S012","VerticalHorizontal",0.16122,-18,"VerticalHorizontal_-18.000_0.16122.png","B",26,1684542,0.643,"arrowleft","arrowleft",0,"Congruent",0.16122,"Congruent - Mild","Easy"
"S012","VerticalHorizontal",0.03,9,"VerticalHorizontal_9.00000_0.03000.png","B",27,1685853,1.291,"arrowleft","arrowleft",0,"Incongruent",0.03,"Incongruent - Mild","Hard"
"S012","VerticalHorizontal",0.03,-9,"VerticalHorizontal_-9.0000_0.03000.png","B",28,1687856,1.017,"arrowleft","arrowleft",0,"Congruent",0.03,"Congruent - Mild","Hard"
"S012","VerticalHorizontal",-0.08913,-45,"VerticalHorizontal_-45.000_-0.08913.png","B",29,1689938,0.732,"arrowright","arrowright",0,"Congruent",0.08913,"Congruent - Strong","Hard"
"S012","VerticalHorizontal",-0.16122,-36,"VerticalHorizontal_-36.000_-0.16122.png","B",30,1691327,1.17,"arrowright","arrowright",0,"Congruent",0.16122,"Congruent - Strong","Easy"
"S012","VerticalHorizontal",0.03,-45,"VerticalHorizontal_-45.000_0.03000.png","B",31,1693494,0.793,"arrowleft","arrowleft",0,"Congruent",0.03,"Congruent - Strong","Hard"
"S012","VerticalHorizontal",0.08913,-9,"VerticalHorizontal_-9.0000_0.08913.png","B",32,1695285,1.253,"arrowleft","arrowleft",0,"Congruent",0.08913,"Congruent - Mild","Hard"
"S012","VerticalHorizontal",-0.03,27,"VerticalHorizontal_27.0000_-0.0300.png","B",33,1697226,1.222,"arrowleft","arrowright",1,"Incongruent",0.03,"Incongruent - Strong","Hard"
"S012","VerticalHorizontal",-0.03,-45,"VerticalHorizontal_-45.000_-0.0300.png","B",34,1699289,0.903,"arrowright","arrowright",0,"Congruent",0.03,"Congruent - Strong","Hard"
"S012","VerticalHorizontal",0.03,-36,"VerticalHorizontal_-36.000_0.03000.png","B",35,1701223,1.343,"arrowleft","arrowleft",0,"Congruent",0.03,"Congruent - Strong","Hard"
"S012","VerticalHorizontal",0.24909,-27,"VerticalHorizontal_-27.000_0.24909.png","B",36,1703563,1.959,"arrowleft","arrowleft",0,"Congruent",0.24909,"Congruent - Strong","Easy"
"S012","VerticalHorizontal",-0.08913,-27,"VerticalHorizontal_-27.000_-0.08913.png","B",37,1706190,1.127,"arrowright","arrowright",0,"Congruent",0.08913,"Congruent - Strong","Hard"
"S012","VerticalHorizontal",-0.08913,27,"VerticalHorizontal_27.0000_-0.08913.png","B",38,1707996,1.738,"arrowleft","arrowright",1,"Incongruent",0.08913,"Incongruent - Strong","Hard"
"S012","VerticalHorizontal",-0.16122,-9,"VerticalHorizontal_-9.0000_-0.16122.png","B",39,1710705,2.159,"arrowright","arrowright",0,"Congruent",0.16122,"Congruent - Mild","Easy"
"S012","VerticalHorizontal",0.16122,9,"VerticalHorizontal_9.00000_0.16122.png","B",40,1713756,1.481,"arrowleft","arrowleft",0,"Incongruent",0.16122,"Incongruent - Mild","Easy"
"S012","VerticalHorizontal",0.24909,-36,"VerticalHorizontal_-36.000_0.24909.png","B",41,1716179,1.365,"arrowleft","arrowleft",0,"Congruent",0.24909,"Congruent - Strong","Easy"
"S012","VerticalHorizontal",0.08913,-45,"VerticalHorizontal_-45.000_0.08913.png","B",42,1718221,0.888,"arrowleft","arrowleft",0,"Congruent",0.08913,"Congruent - Strong","Hard"
"S012","VerticalHorizontal",0.08913,36,"VerticalHorizontal_36.0000_0.08913.png","B",43,1720085,0.92,"arrowright","arrowleft",1,"Incongruent",0.08913,"Incongruent - Strong","Hard"
"S012","VerticalHorizontal",-0.03,-27,"VerticalHorizontal_-27.000_-0.0300.png","B",44,1721926,1.019,"arrowright","arrowright",0,"Congruent",0.03,"Congruent - Strong","Hard"
"S012","VerticalHorizontal",-0.16122,-18,"VerticalHorizontal_-18.000_-0.16122.png","B",45,1723796,0.842,"arrowright","arrowright",0,"Congruent",0.16122,"Congruent - Mild","Easy"
"S012","VerticalHorizontal",-0.24909,27,"VerticalHorizontal_27.0000_-0.24909.png","B",46,1725640,1.62,"arrowleft","arrowright",1,"Incongruent",0.24909,"Incongruent - Strong","Easy"
"S012","VerticalHorizontal",0.03,-27,"VerticalHorizontal_-27.000_0.03000.png","B",47,1728276,3.677,"arrowleft","arrowleft",0,"Congruent",0.03,"Congruent - Strong","Hard"
"S012","VerticalHorizontal",-0.24909,-9,"VerticalHorizontal_-9.0000_-0.24909.png","B",48,1732794,0.684,"arrowright","arrowright",0,"Congruent",0.24909,"Congruent - Mild","Easy"
"S012","VerticalHorizontal",-0.24909,18,"VerticalHorizontal_18.0000_-0.24909.png","B",49,1734580,0.797,"arrowright","arrowright",0,"Incongruent",0.24909,"Incongruent - Mild","Easy"
"S012","VerticalHorizontal",0.16122,45,"VerticalHorizontal_45.0000_0.16122.png","B",50,1736235,0.873,"arrowleft","arrowleft",0,"Incongruent",0.16122,"Incongruent - Strong","Easy"
"S012","VerticalHorizontal",-0.08913,-36,"VerticalHorizontal_-36.000_-0.08913.png","B",51,1738094,1.252,"arrowright","arrowright",0,"Congruent",0.08913,"Congruent - Strong","Hard"
"S012","VerticalHorizontal",-0.24909,45,"VerticalHorizontal_45.0000_-0.24909.png","B",52,1740022,1.085,"arrowright","arrowright",0,"Incongruent",0.24909,"Incongruent - Strong","Easy"
"S012","VerticalHorizontal",0.16122,36,"VerticalHorizontal_36.0000_0.16122.png","B",53,1741822,0.857,"arrowleft","arrowleft",0,"Incongruent",0.16122,"Incongruent - Strong","Easy"
"S012","VerticalHorizontal",0.24909,18,"VerticalHorizontal_18.0000_0.24909.png","B",54,1743404,0.763,"arrowleft","arrowleft",0,"Incongruent",0.24909,"Incongruent - Mild","Easy"
"S012","VerticalHorizontal",0.16122,-27,"VerticalHorizontal_-27.000_0.16122.png","B",55,1745011,0.64,"arrowleft","arrowleft",0,"Congruent",0.16122,"Congruent - Strong","Easy"
"S012","VerticalHorizontal",0.08913,45,"VerticalHorizontal_45.0000_0.08913.png","B",56,1746578,1.42,"arrowleft","arrowleft",0,"Incongruent",0.08913,"Incongruent - Strong","Hard"
"S012","VerticalHorizontal",-0.03,45,"VerticalHorizontal_45.0000_-0.0300.png","B",57,1748810,1.086,"arrowleft","arrowright",1,"Incongruent",0.03,"Incongruent - Strong","Hard"
"S012","VerticalHorizontal",0.08913,27,"VerticalHorizontal_27.0000_0.08913.png","B",58,1750561,0.76,"arrowright","arrowleft",1,"Incongruent",0.08913,"Incongruent - Strong","Hard"
"S012","VerticalHorizontal",-0.24909,-36,"VerticalHorizontal_-36.000_-0.24909.png","B",59,1752413,0.678,"arrowright","arrowright",0,"Congruent",0.24909,"Congruent - Strong","Easy"
"S012","VerticalHorizontal",0.08913,-18,"VerticalHorizontal_-18.000_0.08913.png","B",60,1753911,0.727,"arrowleft","arrowleft",0,"Congruent",0.08913,"Congruent - Mild","Hard"
"S012","VerticalHorizontal",0.03,27,"VerticalHorizontal_27.0000_0.03000.png","B",61,1755567,1.37,"arrowleft","arrowleft",0,"Incongruent",0.03,"Incongruent - Strong","Hard"
"S012","VerticalHorizontal",0.24909,-45,"VerticalHorizontal_-45.000_0.24909.png","B",62,1758034,0.86,"arrowleft","arrowleft",0,"Congruent",0.24909,"Congruent - Strong","Easy"
"S012","VerticalHorizontal",0.24909,-18,"VerticalHorizontal_-18.000_0.24909.png","B",63,1760036,0.628,"arrowleft","arrowleft",0,"Congruent",0.24909,"Congruent - Mild","Easy"
"S012","VerticalHorizontal",0.24909,45,"VerticalHorizontal_45.0000_0.24909.png","B",64,1761295,0.981,"arrowleft","arrowleft",0,"Incongruent",0.24909,"Incongruent - Strong","Easy"
"S012","VerticalHorizontal",-0.03,-9,"VerticalHorizontal_-9.0000_-0.0300.png","B",65,1763274,0.867,"arrowright","arrowright",0,"Congruent",0.03,"Congruent - Mild","Hard"
"S012","VerticalHorizontal",-0.03,-18,"VerticalHorizontal_-18.000_-0.0300.png","B",66,1765240,1.369,"arrowleft","arrowright",1,"Congruent",0.03,"Congruent - Mild","Hard"
"S012","VerticalHorizontal",-0.16122,18,"VerticalHorizontal_18.0000_-0.16122.png","B",67,1767675,1.76,"arrowright","arrowright",0,"Incongruent",0.16122,"Incongruent - Mild","Easy"
"S012","VerticalHorizontal",0.08913,9,"VerticalHorizontal_9.00000_0.08913.png","B",68,1770250,1.681,"arrowright","arrowleft",1,"Incongruent",0.08913,"Incongruent - Mild","Hard"
"S012","VerticalHorizontal",-0.24909,-18,"VerticalHorizontal_-18.000_-0.24909.png","B",69,1772598,1.587,"arrowright","arrowright",0,"Congruent",0.24909,"Congruent - Mild","Easy"
"S012","VerticalHorizontal",0.16122,-36,"VerticalHorizontal_-36.000_0.16122.png","B",70,1775223,0.818,"arrowleft","arrowleft",0,"Congruent",0.16122,"Congruent - Strong","Easy"
"S012","VerticalHorizontal",0.24909,9,"VerticalHorizontal_9.00000_0.24909.png","B",71,1777080,0.971,"arrowleft","arrowleft",0,"Incongruent",0.24909,"Incongruent - Mild","Easy"
"S012","VerticalHorizontal",-0.16122,9,"VerticalHorizontal_9.00000_-0.16122.png","B",72,1778926,0.787,"arrowright","arrowright",0,"Incongruent",0.16122,"Incongruent - Mild","Easy"
"S012","VerticalHorizontal",-0.08913,-18,"VerticalHorizontal_-18.000_-0.08913.png","B",73,1780709,1.066,"arrowleft","arrowright",1,"Congruent",0.08913,"Congruent - Mild","Hard"
"S012","VerticalHorizontal",-0.24909,-45,"VerticalHorizontal_-45.000_-0.24909.png","B",74,1782661,0.73,"arrowright","arrowright",0,"Congruent",0.24909,"Congruent - Strong","Easy"
"S012","VerticalHorizontal",0.08913,-36,"VerticalHorizontal_-36.000_0.08913.png","B",75,1784508,1.584,"arrowright","arrowleft",1,"Congruent",0.08913,"Congruent - Strong","Hard"
"S012","VerticalHorizontal",-0.03,9,"VerticalHorizontal_9.00000_-0.0300.png","B",76,1787016,1.096,"arrowright","arrowright",0,"Incongruent",0.03,"Incongruent - Mild","Hard"
"S012","VerticalHorizontal",-0.08913,45,"VerticalHorizontal_45.0000_-0.08913.png","B",77,1788893,1.209,"arrowleft","arrowright",1,"Incongruent",0.08913,"Incongruent - Strong","Hard"
"S012","VerticalHorizontal",-0.03,-36,"VerticalHorizontal_-36.000_-0.0300.png","B",78,1791102,2.853,"arrowleft","arrowright",1,"Congruent",0.03,"Congruent - Strong","Hard"
"S012","VerticalHorizontal",0.16122,27,"VerticalHorizontal_27.0000_0.16122.png","B",79,1794579,0.877,"arrowleft","arrowleft",0,"Incongruent",0.16122,"Incongruent - Strong","Easy"
"S012","VerticalHorizontal",-0.24909,-27,"VerticalHorizontal_-27.000_-0.24909.png","B",80,1796411,0.611,"arrowright","arrowright",0,"Congruent",0.24909,"Congruent - Strong","Easy"
"S011","MullerLyer",0.30447,-21,"MullerLyer_-21.000_0.30447.png","A",1,239680,0.499,"arrowup","arrowup",0,"Congruent",0.30447,"Congruent - Strong","Easy"
"S011","MullerLyer",0.18509,-27,"MullerLyer_-27.000_0.18509.png","A",2,240842,0.377,"arrowup","arrowup",0,"Congruent",0.18509,"Congruent - Strong","Hard"
"S011","MullerLyer",0.30447,15,"MullerLyer_15.0000_0.30447.png","A",3,242076,1.056,"arrowup","arrowup",0,"Incongruent",0.30447,"Incongruent - Mild","Easy"
"S011","MullerLyer",0.18509,-3,"MullerLyer_-3.0000_0.18509.png","A",4,243991,0.691,"arrowup","arrowup",0,"Congruent",0.18509,"Congruent - Mild","Hard"
"S011","MullerLyer",0.08716,-21,"MullerLyer_-21.000_0.08716.png","A",5,245409,0.625,"arrowup","arrowup",0,"Congruent",0.08716,"Congruent - Strong","Hard"
"S011","MullerLyer",-0.45,3,"MullerLyer_3.00000_-0.4500.png","A",6,246978,0.498,"arrowdown","arrowdown",0,"Incongruent",0.45,"Incongruent - Mild","Easy"
"S011","MullerLyer",0.18509,3,"MullerLyer_3.00000_0.18509.png","A",7,248441,1.162,"arrowup","arrowup",0,"Incongruent",0.18509,"Incongruent - Mild","Hard"
"S011","MullerLyer",0.18509,21,"MullerLyer_21.0000_0.18509.png","A",8,250501,1.423,"arrowup","arrowup",0,"Incongruent",0.18509,"Incongruent - Strong","Hard"
"S011","MullerLyer",0.45,27,"MullerLyer_27.0000_0.45000.png","A",9,252755,0.737,"arrowup","arrowup",0,"Incongruent",0.45,"Incongruent - Strong","Easy"
"S011","MullerLyer",0.18509,9,"MullerLyer_9.00000_0.18509.png","A",10,254578,1.921,"arrowup","arrowup",0,"Incongruent",0.18509,"Incongruent - Mild","Hard"
"S011","MullerLyer",-0.45,27,"MullerLyer_27.0000_-0.4500.png","A",11,257488,0.829,"arrowdown","arrowdown",0,"Incongruent",0.45,"Incongruent - Strong","Easy"
"S011","MullerLyer",0.18509,-15,"MullerLyer_-15.000_0.18509.png","A",12,259157,0.647,"arrowup","arrowup",0,"Congruent",0.18509,"Congruent - Mild","Hard"
"S011","MullerLyer",0.30447,21,"MullerLyer_21.0000_0.30447.png","A",13,260478,2.078,"arrowup","arrowup",0,"Incongruent",0.30447,"Incongruent - Strong","Easy"
"S011","MullerLyer",-0.18509,21,"MullerLyer_21.0000_-0.18509.png","A",14,263484,0.904,"arrowdown","arrowdown",0,"Incongruent",0.18509,"Incongruent - Strong","Hard"
"S011","MullerLyer",-0.45,15,"MullerLyer_15.0000_-0.4500.png","A",15,265151,0.669,"arrowdown","arrowdown",0,"Incongruent",0.45,"Incongruent - Mild","Easy"
"S011","MullerLyer",-0.08716,27,"MullerLyer_27.0000_-0.08716.png","A",16,266588,0.551,"arrowup","arrowdown",1,"Incongruent",0.08716,"Incongruent - Strong","Hard"
"S011","MullerLyer",-0.45,-9,"MullerLyer_-9.0000_-0.4500.png","A",17,268188,0.471,"arrowdown","arrowdown",0,"Congruent",0.45,"Congruent - Mild","Easy"
"S011","MullerLyer",-0.08716,-27,"MullerLyer_-27.000_-0.08716.png","A",18,269553,0.538,"arrowdown","arrowdown",0,"Congruent",0.08716,"Congruent - Strong","Hard"
"S011","MullerLyer",-0.30447,15,"MullerLyer_15.0000_-0.30447.png","A",19,270843,1.095,"arrowdown","arrowdown",0,"Incongruent",0.30447,"Incongruent - Mild","Easy"
"S011","MullerLyer",-0.45,21,"MullerLyer_21.0000_-0.4500.png","A",20,272613,0.791,"arrowdown","arrowdown",0,"Incongruent",0.45,"Incongruent - Strong","Easy"
"S011","MullerLyer",0.45,-27,"MullerLyer_-27.000_0.45000.png","A",21,274108,0.688,"arrowup","arrowup",0,"Congruent",0.45,"Congruent - Strong","Easy"
"S011","MullerLyer",-0.08716,3,"MullerLyer_3.00000_-0.08716.png","A",22,275742,1.141,"arrowdown","arrowdown",0,"Incongruent",0.08716,"Incongruent - Mild","Hard"
"S011","MullerLyer",0.30447,27,"MullerLyer_27.0000_0.30447.png","A",23,277930,1.256,"arrowup","arrowup",0,"Incongruent",0.30447,"Incongruent - Strong","Easy"
"S011","MullerLyer",-0.30447,-9,"MullerLyer_-9.0000_-0.30447.png","A",24,280177,1.274,"arrowdown","arrowdown",0,"Congruent",0.30447,"Congruent - Mild","Easy"
"S011","MullerLyer",0.30447,-15,"MullerLyer_-15.000_0.30447.png","A",25,282269,0.454,"arrowup","arrowup",0,"Congruent",0.30447,"Congruent - Mild","Easy"
"S011","MullerLyer",0.08716,15,"MullerLyer_15.0000_0.08716.png","A",26,283413,0.454,"arrowdown","arrowup",1,"Incongruent",0.08716,"Incongruent - Mild","Hard"
"S011","MullerLyer",0.30447,3,"MullerLyer_3.00000_0.30447.png","A",27,284818,0.505,"arrowup","arrowup",0,"Incongruent",0.30447,"Incongruent - Mild","Easy"
"S011","MullerLyer",-0.30447,3,"MullerLyer_3.00000_-0.30447.png","A",28,286026,0.569,"arrowdown","arrowdown",0,"Incongruent",0.30447,"Incongruent - Mild","Easy"
"S011","MullerLyer",-0.18509,15,"MullerLyer_15.0000_-0.18509.png","A",29,287558,1.069,"arrowdown","arrowdown",0,"Incongruent",0.18509,"Incongruent - Mild","Hard"
"S011","MullerLyer",-0.30447,-21,"MullerLyer_-21.000_-0.30447.png","A",30,289670,0.756,"arrowdown","arrowdown",0,"Congruent",0.30447,"Congruent - Strong","Easy"
"S011","MullerLyer",0.08716,27,"MullerLyer_27.0000_0.08716.png","A",31,291460,0.959,"arrowup","arrowup",0,"Incongruent",0.08716,"Incongruent - Strong","Hard"
"S011","MullerLyer",0.18509,15,"MullerLyer_15.0000_0.18509.png","A",32,293321,1.266,"arrowup","arrowup",0,"Incongruent",0.18509,"Incongruent - Mild","Hard"
"S011","MullerLyer",0.30447,-27,"MullerLyer_-27.000_0.30447.png","A",33,295316,0.607,"arrowup","arrowup",0,"Congruent",0.30447,"Congruent - Strong","Easy"
"S011","MullerLyer",0.18509,-9,"MullerLyer_-9.0000_0.18509.png","A",34,296869,0.566,"arrowup","arrowup",0,"Congruent",0.18509,"Congruent - Mild","Hard"
"S011","MullerLyer",0.18509,-21,"MullerLyer_-21.000_0.18509.png","A",35,298128,0.515,"arrowup","arrowup",0,"Congruent",0.18509,"Congruent - Strong","Hard"
"S011","MullerLyer",0.45,-3,"MullerLyer_-3.0000_0.45000.png","A",36,299288,0.483,"arrowup","arrowup",0,"Congruent",0.45,"Congruent - Mild","Easy"
"S011","MullerLyer",0.08716,-15,"MullerLyer_-15.000_0.08716.png","A",37,300801,0.54,"arrowup","arrowup",0,"Congruent",0.08716,"Congruent - Mild","Hard"
"S011","MullerLyer",-0.45,9,"MullerLyer_9.00000_-0.4500.png","A",38,302204,0.509,"arrowdown","arrowdown",0,"Incongruent",0.45,"Incongruent - Mild","Easy"
"S011","MullerLyer",0.08716,9,"MullerLyer_9.00000_0.08716.png","A",39,303695,2.652,"arrowup","arrowup",0,"Incongruent",0.08716,"Incongruent - Mild","Hard"
"S011","MullerLyer",0.08716,-27,"MullerLyer_-27.000_0.08716.png","A",40,307367,0.525,"arrowup","arrowup",0,"Congruent",0.08716,"Congruent - Strong","Hard"
"S011","MullerLyer",-0.08716,-9,"MullerLyer_-9.0000_-0.08716.png","A",41,308568,0.683,"arrowdown","arrowdown",0,"Congruent",0.08716,"Congruent - Mild","Hard"
"S011","MullerLyer",0.08716,3,"MullerLyer_3.00000_0.08716.png","A",42,310325,0.599,"arrowup","arrowup",0,"Incongruent",0.08716,"Incongruent - Mild","Hard"
"S011","MullerLyer",0.45,-15,"MullerLyer_-15.000_0.45000.png","A",43,311581,0.591,"arrowup","arrowup",0,"Congruent",0.45,"Congruent - Mild","Easy"
"S011","MullerLyer",-0.08716,15,"MullerLyer_15.0000_-0.08716.png","A",44,312892,2.537,"arrowdown","arrowdown",0,"Incongruent",0.08716,"Incongruent - Mild","Hard"
"S011","MullerLyer",0.08716,-9,"MullerLyer_-9.0000_0.08716.png","A",45,316439,0.58,"arrowup","arrowup",0,"Congruent",0.08716,"Congruent - Mild","Hard"
"S011","MullerLyer",-0.45,-21,"MullerLyer_-21.000_-0.4500.png","A",46,317870,0.478,"arrowdown","arrowdown",0,"Congruent",0.45,"Congruent - Strong","Easy"
"S011","MullerLyer",-0.30447,9,"MullerLyer_9.00000_-0.30447.png","A",47,319007,0.854,"arrowdown","arrowdown",0,"Incongruent",0.30447,"Incongruent - Mild","Easy"
"S011","MullerLyer",-0.18509,-21,"MullerLyer_-21.000_-0.18509.png","A",48,320659,0.521,"arrowdown","arrowdown",0,"Congruent",0.18509,"Congruent - Strong","Hard"
"S011","MullerLyer",-0.08716,-3,"MullerLyer_-3.0000_-0.08716.png","A",49,321866,1.857,"arrowdown","arrowdown",0,"Congruent",0.08716,"Congruent - Mild","Hard"
"S011","MullerLyer",-0.30447,-3,"MullerLyer_-3.0000_-0.30447.png","A",50,324557,0.543,"arrowdown","arrowdown",0,"Congruent",0.30447,"Congruent - Mild","Easy"
"S011","MullerLyer",0.45,-21,"MullerLyer_-21.000_0.45000.png","A",51,325736,0.499,"arrowup","arrowup",0,"Congruent",0.45,"Congruent - Strong","Easy"
"S011","MullerLyer",0.30447,-3,"MullerLyer_-3.0000_0.30447.png","A",52,327309,0.728,"arrowup","arrowup",0,"Congruent",0.30447,"Congruent - Mild","Easy"
"S011","MullerLyer",-0.18509,-15,"MullerLyer_-15.000_-0.18509.png","A",53,328884,0.614,"arrowdown","arrowdown",0,"Congruent",0.18509,"Congruent - Mild","Hard"
"S011","MullerLyer",-0.18509,-9,"MullerLyer_-9.0000_-0.18509.png","A",54,330238,0.686,"arrowdown","arrowdown",0,"Congruent",0.18509,"Congruent - Mild","Hard"
"S011","MullerLyer",-0.18509,-3,"MullerLyer_-3.0000_-0.18509.png","A",55,331649,0.492,"arrowdown","arrowdown",0,"Congruent",0.18509,"Congruent - Mild","Hard"
"S011","MullerLyer",0.30447,-9,"MullerLyer_-9.0000_0.30447.png","A",56,333169,0.546,"arrowup","arrowup",0,"Congruent",0.30447,"Congruent - Mild","Easy"
"S011","MullerLyer",-0.30447,-27,"MullerLyer_-27.000_-0.30447.png","A",57,334340,0.543,"arrowdown","arrowdown",0,"Congruent",0.30447,"Congruent - Strong","Easy"
"S011","MullerLyer",-0.45,-15,"MullerLyer_-15.000_-0.4500.png","A",58,335729,0.442,"arrowdown","arrowdown",0,"Congruent",0.45,"Congruent - Mild","Easy"
"S011","MullerLyer",0.45,15,"MullerLyer_15.0000_0.45000.png","A",59,337057,0.507,"arrowup","arrowup",0,"Incongruent",0.45,"Incongruent - Mild","Easy"
"S011","MullerLyer",0.08716,21,"MullerLyer_21.0000_0.08716.png","A",60,338270,0.503,"arrowdown","arrowup",1,"Incongruent",0.08716,"Incongruent - Strong","Hard"
"S011","MullerLyer",-0.45,-3,"MullerLyer_-3.0000_-0.4500.png","A",61,339841,0.572,"arrowdown","arrowdown",0,"Congruent",0.45,"Congruent - Mild","Easy"
"S011","MullerLyer",-0.08716,21,"MullerLyer_21.0000_-0.08716.png","A",62,341190,0.606,"arrowup","arrowdown",1,"Incongruent",0.08716,"Incongruent - Strong","Hard"
"S011","MullerLyer",0.45,21,"MullerLyer_21.0000_0.45000.png","A",63,342594,0.576,"arrowup","arrowup",0,"Incongruent",0.45,"Incongruent - Strong","Easy"
"S011","MullerLyer",-0.45,-27,"MullerLyer_-27.000_-0.4500.png","A",64,344152,0.563,"arrowdown","arrowdown",0,"Congruent",0.45,"Congruent - Strong","Easy"
"S011","MullerLyer",-0.08716,9,"MullerLyer_9.00000_-0.08716.png","A",65,345630,5.67,"arrowdown","arrowdown",0,"Incongruent",0.08716,"Incongruent - Mild","Hard"
"S011","MullerLyer",-0.08716,-15,"MullerLyer_-15.000_-0.08716.png","A",66,352273,0.554,"arrowdown","arrowdown",0,"Congruent",0.08716,"Congruent - Mild","Hard"
"S011","MullerLyer",0.18509,27,"MullerLyer_27.0000_0.18509.png","A",67,353725,1.83,"arrowup","arrowup",0,"Incongruent",0.18509,"Incongruent - Strong","Hard"
"S011","MullerLyer",-0.30447,27,"MullerLyer_27.0000_-0.30447.png","A",68,356324,1.103,"arrowdown","arrowdown",0,"Incongruent",0.30447,"Incongruent - Strong","Easy"
"S011","MullerLyer",0.08716,-3,"MullerLyer_-3.0000_0.08716.png","A",69,358163,1.328,"arrowup","arrowup",0,"Congruent",0.08716,"Congruent - Mild","Hard"
"S011","MullerLyer",0.45,3,"MullerLyer_3.00000_0.45000.png","A",70,360149,0.519,"arrowup","arrowup",0,"Incongruent",0.45,"Incongruent - Mild","Easy"
"S011","MullerLyer",-0.08716,-21,"MullerLyer_-21.000_-0.08716.png","A",71,361310,0.556,"arrowdown","arrowdown",0,"Congruent",0.08716,"Congruent - Strong","Hard"
"S011","MullerLyer",0.45,9,"MullerLyer_9.00000_0.45000.png","A",72,362945,0.555,"arrowup","arrowup",0,"Incongruent",0.45,"Incongruent - Mild","Easy"
"S011","MullerLyer",-0.18509,9,"MullerLyer_9.00000_-0.18509.png","A",73,364264,1.604,"arrowdown","arrowdown",0,"Incongruent",0.18509,"Incongruent - Mild","Hard"
"S011","MullerLyer",-0.30447,-15,"MullerLyer_-15.000_-0.30447.png","A",74,366736,0.525,"arrowdown","arrowdown",0,"Congruent",0.30447,"Congruent - Mild","Easy"
"S011","MullerLyer",-0.18509,-27,"MullerLyer_-27.000_-0.18509.png","A",75,367979,0.521,"arrowdown","arrowdown",0,"Congruent",0.18509,"Congruent - Strong","Hard"
"S011","MullerLyer",-0.30447,21,"MullerLyer_21.0000_-0.30447.png","A",76,369216,1.036,"arrowdown","arrowdown",0,"Incongruent",0.30447,"Incongruent - Strong","Easy"
"S011","MullerLyer",-0.18509,27,"MullerLyer_27.0000_-0.18509.png","A",77,371299,2.689,"arrowdown","arrowdown",0,"Incongruent",0.18509,"Incongruent - Strong","Hard"
"S011","MullerLyer",0.30447,9,"MullerLyer_9.00000_0.30447.png","A",78,374607,1.085,"arrowup","arrowup",0,"Incongruent",0.30447,"Incongruent - Mild","Easy"
"S011","MullerLyer",-0.18509,3,"MullerLyer_3.00000_-0.18509.png","A",79,376722,1.17,"arrowdown","arrowdown",0,"Incongruent",0.18509,"Incongruent - Mild","Hard"
"S011","MullerLyer",0.45,-9,"MullerLyer_-9.0000_0.45000.png","A",80,379002,0.562,"arrowup","arrowup",0,"Congruent",0.45,"Congruent - Mild","Easy"
"S011","Ebbinghaus",0.5,0.75,"Ebbinghaus_0.75000_0.50000.png","A",1,387596,0.768,"arrowleft","arrowleft",0,"Incongruent",0.5,"Incongruent - Mild","Easy"
"S011","Ebbinghaus",-0.5,0.45,"Ebbinghaus_0.45000_-0.5000.png","A",2,389085,0.878,"arrowright","arrowright",0,"Incongruent",0.5,"Incongruent - Mild","Easy"
"S011","Ebbinghaus",-0.5,0.75,"Ebbinghaus_0.75000_-0.5000.png","A",3,390977,0.681,"arrowright","arrowright",0,"Incongruent",0.5,"Incongruent - Mild","Easy"
"S011","Ebbinghaus",-0.5,0.15,"Ebbinghaus_0.15000_-0.5000.png","A",4,392406,0.854,"arrowright","arrowright",0,"Incongruent",0.5,"Incongruent - Mild","Easy"
"S011","Ebbinghaus",0.20566,-1.35,"Ebbinghaus_-1.3500_0.20566.png","A",5,394092,0.639,"arrowleft","arrowleft",0,"Congruent",0.20566,"Congruent - Strong","Hard"
"S011","Ebbinghaus",-0.09684,1.05,"Ebbinghaus_1.05000_-0.09684.png","A",6,395357,2.599,"arrowleft","arrowright",1,"Incongruent",0.09684,"Incongruent - Strong","Hard"
"S011","Ebbinghaus",-0.5,1.35,"Ebbinghaus_1.35000_-0.5000.png","A",7,398739,0.592,"arrowright","arrowright",0,"Incongruent",0.5,"Incongruent - Strong","Easy"
"S011","Ebbinghaus",-0.3383,-1.05,"Ebbinghaus_-1.0500_-0.3383.png","A",8,400115,0.816,"arrowright","arrowright",0,"Congruent",0.3383,"Congruent - Strong","Easy"
"S011","Ebbinghaus",0.5,0.45,"Ebbinghaus_0.45000_0.50000.png","A",9,401644,0.55,"arrowleft","arrowleft",0,"Incongruent",0.5,"Incongruent - Mild","Easy"
"S011","Ebbinghaus",0.3383,1.35,"Ebbinghaus_1.35000_0.33830.png","A",10,403135,1.212,"arrowleft","arrowleft",0,"Incongruent",0.3383,"Incongruent - Strong","Easy"
"S011","Ebbinghaus",0.09684,0.45,"Ebbinghaus_0.45000_0.09684.png","A",11,405001,3.69,"arrowleft","arrowleft",0,"Incongruent",0.09684,"Incongruent - Mild","Hard"
"S011","Ebbinghaus",-0.5,-0.45,"Ebbinghaus_-0.4500_-0.5000.png","A",12,409606,0.636,"arrowright","arrowright",0,"Congruent",0.5,"Congruent - Mild","Easy"
"S011","Ebbinghaus",-0.3383,0.75,"Ebbinghaus_0.75000_-0.3383.png","A",13,411061,0.71,"arrowright","arrowright",0,"Incongruent",0.3383,"Incongruent - Mild","Easy"
"S011","Ebbinghaus",-0.5,1.05,"Ebbinghaus_1.05000_-0.5000.png","A",14,412476,0.695,"arrowright","arrowright",0,"Incongruent",0.5,"Incongruent - Strong","Easy"
"S011","Ebbinghaus",-0.20566,-0.75,"Ebbinghaus_-0.7500_-0.20566.png","A",15,413917,0.837,"arrowright","arrowright",0,"Congruent",0.20566,"Congruent - Mild","Hard"
"S011","Ebbinghaus",-0.20566,0.75,"Ebbinghaus_0.75000_-0.20566.png","A",16,415596,0.767,"arrowright","arrowright",0,"Incongruent",0.20566,"Incongruent - Mild","Hard"
"S011","Ebbinghaus",-0.3383,1.35,"Ebbinghaus_1.35000_-0.3383.png","A",17,417475,1.696,"arrowright","arrowright",0,"Incongruent",0.3383,"Incongruent - Strong","Easy"
"S011","Ebbinghaus",0.5,-1.05,"Ebbinghaus_-1.0500_0.50000.png","A",18,420114,0.682,"arrowleft","arrowleft",0,"Congruent",0.5,"Congruent - Strong","Easy"
"S011","Ebbinghaus",-0.3383,-0.15,"Ebbinghaus_-0.1500_-0.3383.png","A",19,421536,0.515,"arrowright","arrowright",0,"Congruent",0.3383,"Congruent - Mild","Easy"
"S011","Ebbinghaus",0.09684,-0.15,"Ebbinghaus_-0.1500_0.09684.png","A",20,422705,1.163,"arrowleft","arrowleft",0,"Congruent",0.09684,"Congruent - Mild","Hard"
"S011","Ebbinghaus",-0.09684,-0.15,"Ebbinghaus_-0.1500_-0.09684.png","A",21,424675,0.959,"arrowright","arrowright",0,"Congruent",0.09684,"Congruent - Mild","Hard"
"S011","Ebbinghaus",0.20566,0.15,"Ebbinghaus_0.15000_0.20566.png","A",22,426258,0.843,"arrowleft","arrowleft",0,"Incongruent",0.20566,"Incongruent - Mild","Hard"
"S011","Ebbinghaus",0.3383,-1.35,"Ebbinghaus_-1.3500_0.33830.png","A",23,427991,0.972,"arrowleft","arrowleft",0,"Congruent",0.3383,"Congruent - Strong","Easy"
"S011","Ebbinghaus",0.3383,-0.15,"Ebbinghaus_-0.1500_0.33830.png","A",24,429708,0.599,"arrowleft","arrowleft",0,"Congruent",0.3383,"Congruent - Mild","Easy"
"S011","Ebbinghaus",-0.3383,-0.75,"Ebbinghaus_-0.7500_-0.3383.png","A",25,431062,0.542,"arrowright","arrowright",0,"Congruent",0.3383,"Congruent - Mild","Easy"
"S011","Ebbinghaus",0.5,-1.35,"Ebbinghaus_-1.3500_0.50000.png","A",26,432544,0.548,"arrowleft","arrowleft",0,"Congruent",0.5,"Congruent - Strong","Easy"
"S011","Ebbinghaus",0.20566,-0.15,"Ebbinghaus_-0.1500_0.20566.png","A",27,434187,1.026,"arrowleft","arrowleft",0,"Congruent",0.20566,"Congruent - Mild","Hard"
"S011","Ebbinghaus",-0.20566,-1.05,"Ebbinghaus_-1.0500_-0.20566.png","A",28,435949,0.542,"arrowright","arrowright",0,"Congruent",0.20566,"Congruent - Strong","Hard"
"S011","Ebbinghaus",-0.3383,-1.35,"Ebbinghaus_-1.3500_-0.3383.png","A",29,437486,0.541,"arrowright","arrowright",0,"Congruent",0.3383,"Congruent - Strong","Easy"
"S011","Ebbinghaus",0.20566,1.05,"Ebbinghaus_1.05000_0.20566.png","A",30,438982,0.493,"arrowleft","arrowleft",0,"Incongruent",0.20566,"Incongruent - Strong","Hard"
"S011","Ebbinghaus",0.20566,-0.45,"Ebbinghaus_-0.4500_0.20566.png","A",31,440100,0.8,"arrowleft","arrowleft",0,"Congruent",0.20566,"Congruent - Mild","Hard"
"S011","Ebbinghaus",0.20566,-0.75,"Ebbinghaus_-0.7500_0.20566.png","A",32,441564,0.776,"arrowleft","arrowleft",0,"Congruent",0.20566,"Congruent - Mild","Hard"
"S011","Ebbinghaus",0.09684,-1.05,"Ebbinghaus_-1.0500_0.09684.png","A",33,443380,1.471,"arrowleft","arrowleft",0,"Congruent",0.09684,"Congruent - Strong","Hard"
"S011","Ebbinghaus",0.5,-0.45,"Ebbinghaus_-0.4500_0.50000.png","A",34,445797,0.542,"arrowleft","arrowleft",0,"Congruent",0.5,"Congruent - Mild","Easy"
"S011","Ebbinghaus",0.5,0.15,"Ebbinghaus_0.15000_0.50000.png","A",35,447379,0.513,"arrowleft","arrowleft",0,"Incongruent",0.5,"Incongruent - Mild","Easy"
"S011","Ebbinghaus",-0.09684,-0.75,"Ebbinghaus_-0.7500_-0.09684.png","A",36,448654,0.502,"arrowright","arrowright",0,"Congruent",0.09684,"Congruent - Mild","Hard"
"S011","Ebbinghaus",-0.20566,0.45,"Ebbinghaus_0.45000_-0.20566.png","A",37,449946,0.594,"arrowright","arrowright",0,"Incongruent",0.20566,"Incongruent - Mild","Hard"
"S011","Ebbinghaus",-0.09684,1.35,"Ebbinghaus_1.35000_-0.09684.png","A",38,451274,0.602,"arrowleft","arrowright",1,"Incongruent",0.09684,"Incongruent - Strong","Hard"
"S011","Ebbinghaus",-0.3383,0.45,"Ebbinghaus_0.45000_-0.3383.png","A",39,452579,0.599,"arrowright","arrowright",0,"Incongruent",0.3383,"Incongruent - Mild","Easy"
"S011","Ebbinghaus",0.3383,0.45,"Ebbinghaus_0.45000_0.33830.png","A",40,454092,0.528,"arrowleft","arrowleft",0,"Incongruent",0.3383,"Incongruent - Mild","Easy"
"S011","Ebbinghaus",-0.20566,-0.15,"Ebbinghaus_-0.1500_-0.20566.png","A",41,455252,0.528,"arrowright","arrowright",0,"Congruent",0.20566,"Congruent - Mild","Hard"
"S011","Ebbinghaus",-0.20566,1.35,"Ebbinghaus_1.35000_-0.20566.png","A",42,456426,0.546,"arrowright","arrowright",0,"Incongruent",0.20566,"Incongruent - Strong","Hard"
"S011","Ebbinghaus",-0.3383,-0.45,"Ebbinghaus_-0.4500_-0.3383.png","A",43,457628,0.52,"arrowright","arrowright",0,"Congruent",0.3383,"Congruent - Mild","Easy"
"S011","Ebbinghaus",-0.5,-0.75,"Ebbinghaus_-0.7500_-0.5000.png","A",44,459178,0.586,"arrowright","arrowright",0,"Congruent",0.5,"Congruent - Mild","Easy"
"S011","Ebbinghaus",-0.09684,-0.45,"Ebbinghaus_-0.4500_-0.09684.png","A",45,460460,0.791,"arrowright","arrowright",0,"Congruent",0.09684,"Congruent - Mild","Hard"
"S011","Ebbinghaus",0.20566,-1.05,"Ebbinghaus_-1.0500_0.20566.png","A",46,462238,0.581,"arrowleft","arrowleft",0,"Congruent",0.20566,"Congruent - Strong","Hard"
"S011","Ebbinghaus",0.3383,-0.75,"Ebbinghaus_-0.7500_0.33830.png","A",47,463911,0.565,"arrowleft","arrowleft",0,"Congruent",0.3383,"Congruent - Mild","Easy"
"S011","Ebbinghaus",0.3383,-1.05,"Ebbinghaus_-1.0500_0.33830.png","A",48,465283,0.689,"arrowleft","arrowleft",0,"Congruent",0.3383,"Congruent - Strong","Easy"
"S011","Ebbinghaus",-0.20566,0.15,"Ebbinghaus_0.15000_-0.20566.png","A",49,467071,0.628,"arrowright","arrowright",0,"Incongruent",0.20566,"Incongruent - Mild","Hard"
"S011","Ebbinghaus",0.09684,0.15,"Ebbinghaus_0.15000_0.09684.png","A",50,468448,1.612,"arrowleft","arrowleft",0,"Incongruent",0.09684,"Incongruent - Mild","Hard"
"S011","Ebbinghaus",0.09684,-1.35,"Ebbinghaus_-1.3500_0.09684.png","A",51,470962,0.674,"arrowleft","arrowleft",0,"Congruent",0.09684,"Congruent - Strong","Hard"
