Participant,Illusion_Type,Illusion_Difference,Illusion_Strength,File,Block,Trial,ISI,RT,Response,Response_Correct,Error
S017,MullerLyer,0.18509,-27.0,MullerLyer_-27.000_0.18509.png,A,1.0,721322.0,0.478,arrowup,arrowup,0
S017,MullerLyer,-0.45,-9.0,MullerLyer_-9.0000_-0.4500.png,A,2.0,722519.0,0.509,arrowdown,arrowdown,0
S017,MullerLyer,-0.45,21.0,MullerLyer_21.0000_-0.4500.png,A,3.0,723912.0,2.497,arrowdown,arrowdown,0
S017,MullerLyer,-0.18509,9.0,MullerLyer_9.00000_-0.18509.png,A,4.0,727414.0,0.776,arrowup,arrowdown,1
S017,MullerLyer,-0.18509,27.0,MullerLyer_27.0000_-0.18509.png,A,5.0,728993.0,0.473,arrowup,arrowdown,1
S017,MullerLyer,0.45,-21.0,MullerLyer_-21.000_0.45000.png,A,6.0,730501.0,0.43,arrowup,arrowup,0
S017,MullerLyer,0.30447,-27.0,MullerLyer_-27.000_0.30447.png,A,7.0,731837.0,0.481,arrowup,arrowup,0
S017,MullerLyer,-0.08716,15.0,MullerLyer_15.0000_-0.08716.png,A,8.0,733402.0,0.648,arrowup,arrowdown,1
S017,MullerLyer,0.30447,15.0,MullerLyer_15.0000_0.30447.png,A,9.0,735054.0,1.364,arrowup,arrowup,0
S017,MullerLyer,-0.18509,21.0,MullerLyer_21.0000_-0.18509.png,A,10.0,737427.0,1.081,arrowup,arrowdown,1
S017,MullerLyer,0.08716,-27.0,MullerLyer_-27.000_0.08716.png,A,11.0,739309.0,0.518,arrowup,arrowup,0
S017,MullerLyer,0.45,27.0,MullerLyer_27.0000_0.45000.png,A,12.0,740441.0,1.326,arrowup,arrowup,0
S017,MullerLyer,0.45,15.0,MullerLyer_15.0000_0.45000.png,A,13.0,742867.0,0.583,arrowup,arrowup,0
S017,MullerLyer,-0.08716,3.0,MullerLyer_3.00000_-0.08716.png,A,14.0,744331.0,1.664,arrowdown,arrowdown,0
S017,MullerLyer,-0.45,-3.0,MullerLyer_-3.0000_-0.4500.png,A,15.0,746750.0,0.588,arrowdown,arrowdown,0
S017,MullerLyer,-0.18509,-27.0,MullerLyer_-27.000_-0.18509.png,A,16.0,748136.0,0.491,arrowdown,arrowdown,0
S017,MullerLyer,-0.08716,21.0,MullerLyer_21.0000_-0.08716.png,A,17.0,749583.0,0.556,arrowup,arrowdown,1
S017,MullerLyer,0.08716,-21.0,MullerLyer_-21.000_0.08716.png,A,18.0,750967.0,0.95,arrowup,arrowup,0
S017,MullerLyer,0.45,-9.0,MullerLyer_-9.0000_0.45000.png,A,19.0,752814.0,0.477,arrowup,arrowup,0
S017,MullerLyer,-0.45,27.0,MullerLyer_27.0000_-0.4500.png,A,20.0,754328.0,0.523,arrowdown,arrowdown,0
S017,MullerLyer,0.18509,15.0,MullerLyer_15.0000_0.18509.png,A,21.0,755642.0,0.547,arrowdown,arrowup,1
S017,MullerLyer,-0.08716,-15.0,MullerLyer_-15.000_-0.08716.png,A,22.0,757181.0,0.497,arrowdown,arrowdown,0
S017,MullerLyer,0.18509,-15.0,MullerLyer_-15.000_0.18509.png,A,23.0,758421.0,0.444,arrowup,arrowup,0
S017,MullerLyer,-0.18509,-15.0,MullerLyer_-15.000_-0.18509.png,A,24.0,759898.0,0.433,arrowdown,arrowdown,0
S017,MullerLyer,0.08716,9.0,MullerLyer_9.00000_0.08716.png,A,25.0,761204.0,0.79,arrowdown,arrowup,1
S017,MullerLyer,-0.08716,27.0,MullerLyer_27.0000_-0.08716.png,A,26.0,763029.0,0.492,arrowup,arrowdown,1
S017,MullerLyer,-0.18509,-3.0,MullerLyer_-3.0000_-0.18509.png,A,27.0,764490.0,0.466,arrowdown,arrowdown,0
S017,MullerLyer,0.08716,-15.0,MullerLyer_-15.000_0.08716.png,A,28.0,765849.0,0.432,arrowup,arrowup,0
S017,MullerLyer,-0.08716,-21.0,MullerLyer_-21.000_-0.08716.png,A,29.0,767009.0,0.537,arrowdown,arrowdown,0
S017,MullerLyer,0.30447,-3.0,MullerLyer_-3.0000_0.30447.png,A,30.0,768415.0,0.459,arrowup,arrowup,0
S017,MullerLyer,-0.08716,-9.0,MullerLyer_-9.0000_-0.08716.png,A,31.0,769537.0,0.42,arrowdown,arrowdown,0
S017,MullerLyer,0.45,-15.0,MullerLyer_-15.000_0.45000.png,A,32.0,771042.0,0.419,arrowup,arrowup,0
S017,MullerLyer,-0.08716,9.0,MullerLyer_9.00000_-0.08716.png,A,33.0,772304.0,1.165,arrowup,arrowdown,1
S017,MullerLyer,0.30447,-21.0,MullerLyer_-21.000_0.30447.png,A,34.0,774385.0,0.437,arrowup,arrowup,0
S017,MullerLyer,0.18509,21.0,MullerLyer_21.0000_0.18509.png,A,35.0,775654.0,0.594,arrowdown,arrowup,1
S017,MullerLyer,0.08716,-3.0,MullerLyer_-3.0000_0.08716.png,A,36.0,777360.0,0.5,arrowup,arrowup,0
S017,MullerLyer,0.30447,-15.0,MullerLyer_-15.000_0.30447.png,A,37.0,778667.0,0.475,arrowup,arrowup,0
S017,MullerLyer,-0.18509,3.0,MullerLyer_3.00000_-0.18509.png,A,38.0,780049.0,0.569,arrowdown,arrowdown,0
S017,MullerLyer,-0.08716,-27.0,MullerLyer_-27.000_-0.08716.png,A,39.0,781602.0,0.508,arrowdown,arrowdown,0
S017,MullerLyer,0.18509,9.0,MullerLyer_9.00000_0.18509.png,A,40.0,783075.0,1.224,arrowup,arrowup,0
S017,MullerLyer,-0.18509,15.0,MullerLyer_15.0000_-0.18509.png,A,41.0,785022.0,2.09,arrowup,arrowdown,1
S017,MullerLyer,0.18509,27.0,MullerLyer_27.0000_0.18509.png,A,42.0,787811.0,0.665,arrowdown,arrowup,1
S017,MullerLyer,-0.30447,21.0,MullerLyer_21.0000_-0.30447.png,A,43.0,789565.0,1.938,arrowdown,arrowdown,0
S017,MullerLyer,-0.30447,9.0,MullerLyer_9.00000_-0.30447.png,A,44.0,792439.0,0.558,arrowdown,arrowdown,0
S017,MullerLyer,-0.08716,-3.0,MullerLyer_-3.0000_-0.08716.png,A,45.0,793801.0,0.824,arrowdown,arrowdown,0
S017,MullerLyer,-0.30447,-3.0,MullerLyer_-3.0000_-0.30447.png,A,46.0,795685.0,0.519,arrowdown,arrowdown,0
S017,MullerLyer,-0.30447,-27.0,MullerLyer_-27.000_-0.30447.png,A,47.0,797050.0,0.478,arrowdown,arrowdown,0
S017,MullerLyer,-0.18509,-21.0,MullerLyer_-21.000_-0.18509.png,A,48.0,798466.0,0.672,arrowdown,arrowdown,0
S017,MullerLyer,0.08716,15.0,MullerLyer_15.0000_0.08716.png,A,49.0,800240.0,0.627,arrowdown,arrowup,1
S017,MullerLyer,0.30447,27.0,MullerLyer_27.0000_0.30447.png,A,50.0,801835.0,0.487,arrowdown,arrowup,1
S017,MullerLyer,0.08716,27.0,MullerLyer_27.0000_0.08716.png,A,51.0,803165.0,0.544,arrowdown,arrowup,1
S017,MullerLyer,0.18509,-9.0,MullerLyer_-9.0000_0.18509.png,A,52.0,804738.0,0.45,arrowup,arrowup,0
S017,MullerLyer,-0.30447,-21.0,MullerLyer_-21.000_-0.30447.png,A,53.0,806128.0,0.42,arrowdown,arrowdown,0
S017,MullerLyer,0.45,9.0,MullerLyer_9.00000_0.45000.png,A,54.0,807311.0,0.516,arrowup,arrowup,0
S017,MullerLyer,-0.45,-21.0,MullerLyer_-21.000_-0.4500.png,A,55.0,808666.0,0.457,arrowdown,arrowdown,0
S017,MullerLyer,0.45,3.0,MullerLyer_3.00000_0.45000.png,A,56.0,809927.0,0.475,arrowup,arrowup,0
S017,MullerLyer,0.30447,3.0,MullerLyer_3.00000_0.30447.png,A,57.0,811065.0,0.707,arrowup,arrowup,0
S017,MullerLyer,-0.45,-27.0,MullerLyer_-27.000_-0.4500.png,A,58.0,812492.0,0.466,arrowdown,arrowdown,0
S017,MullerLyer,-0.18509,-9.0,MullerLyer_-9.0000_-0.18509.png,A,59.0,813695.0,0.553,arrowdown,arrowdown,0
S017,MullerLyer,-0.30447,-9.0,MullerLyer_-9.0000_-0.30447.png,A,60.0,814950.0,0.548,arrowdown,arrowdown,0
S017,MullerLyer,-0.45,-15.0,MullerLyer_-15.000_-0.4500.png,A,61.0,816224.0,0.44,arrowdown,arrowdown,0
S017,MullerLyer,-0.30447,3.0,MullerLyer_3.00000_-0.30447.png,A,62.0,817557.0,0.553,arrowdown,arrowdown,0
S017,MullerLyer,0.30447,-9.0,MullerLyer_-9.0000_0.30447.png,A,63.0,818890.0,0.454,arrowup,arrowup,0
S017,MullerLyer,-0.45,15.0,MullerLyer_15.0000_-0.4500.png,A,64.0,820212.0,0.893,arrowdown,arrowdown,0
S017,MullerLyer,0.18509,3.0,MullerLyer_3.00000_0.18509.png,A,65.0,822129.0,0.491,arrowup,arrowup,0
S017,MullerLyer,-0.30447,-15.0,MullerLyer_-15.000_-0.30447.png,A,66.0,823402.0,0.396,arrowdown,arrowdown,0
S017,MullerLyer,-0.45,3.0,MullerLyer_3.00000_-0.4500.png,A,67.0,824548.0,0.55,arrowdown,arrowdown,0
S017,MullerLyer,-0.45,9.0,MullerLyer_9.00000_-0.4500.png,A,68.0,825799.0,0.611,arrowdown,arrowdown,0
S017,MullerLyer,0.45,-27.0,MullerLyer_-27.000_0.45000.png,A,69.0,827288.0,0.409,arrowup,arrowup,0
S017,MullerLyer,0.45,-3.0,MullerLyer_-3.0000_0.45000.png,A,70.0,828492.0,0.411,arrowup,arrowup,0
S017,MullerLyer,-0.30447,15.0,MullerLyer_15.0000_-0.30447.png,A,71.0,829737.0,2.602,arrowdown,arrowdown,0
S017,MullerLyer,0.45,21.0,MullerLyer_21.0000_0.45000.png,A,72.0,833318.0,1.031,arrowup,arrowup,0
S017,MullerLyer,0.18509,-3.0,MullerLyer_-3.0000_0.18509.png,A,73.0,835159.0,0.658,arrowup,arrowup,0
S017,MullerLyer,0.08716,21.0,MullerLyer_21.0000_0.08716.png,A,74.0,836857.0,0.465,arrowdown,arrowup,1
S017,MullerLyer,0.30447,9.0,MullerLyer_9.00000_0.30447.png,A,75.0,838229.0,0.545,arrowup,arrowup,0
S017,MullerLyer,0.30447,21.0,MullerLyer_21.0000_0.30447.png,A,76.0,839609.0,0.476,arrowdown,arrowup,1
S017,MullerLyer,0.08716,3.0,MullerLyer_3.00000_0.08716.png,A,77.0,841011.0,0.915,arrowup,arrowup,0
S017,MullerLyer,-0.30447,27.0,MullerLyer_27.0000_-0.30447.png,A,78.0,842972.0,0.528,arrowup,arrowdown,1
S017,MullerLyer,0.08716,-9.0,MullerLyer_-9.0000_0.08716.png,A,79.0,844374.0,0.565,arrowup,arrowup,0
S017,MullerLyer,0.18509,-21.0,MullerLyer_-21.000_0.18509.png,A,80.0,845774.0,0.466,arrowup,arrowup,0
S017,Ebbinghaus,-0.09684,-1.35,Ebbinghaus_-1.3500_-0.09684.png,A,1.0,886283.0,0.688,arrowright,arrowright,0
S017,Ebbinghaus,-0.5,-0.15,Ebbinghaus_-0.1500_-0.5000.png,A,2.0,888038.0,0.504,arrowright,arrowright,0
S017,Ebbinghaus,0.20566,0.15,Ebbinghaus_0.15000_0.20566.png,A,3.0,889405.0,0.984,arrowleft,arrowleft,0
S017,Ebbinghaus,-0.20566,-0.45,Ebbinghaus_-0.4500_-0.20566.png,A,4.0,891310.0,0.696,arrowright,arrowright,0
S017,Ebbinghaus,-0.3383,0.75,Ebbinghaus_0.75000_-0.3383.png,A,5.0,892685.0,0.589,arrowright,arrowright,0
S017,Ebbinghaus,-0.20566,0.75,Ebbinghaus_0.75000_-0.20566.png,A,6.0,894331.0,0.594,arrowright,arrowright,0
S017,Ebbinghaus,0.5,-1.05,Ebbinghaus_-1.0500_0.50000.png,A,7.0,895650.0,0.751,arrowleft,arrowleft,0
S017,Ebbinghaus,-0.3383,-1.35,Ebbinghaus_-1.3500_-0.3383.png,A,8.0,897420.0,0.585,arrowright,arrowright,0
S017,Ebbinghaus,-0.20566,1.05,Ebbinghaus_1.05000_-0.20566.png,A,9.0,898965.0,2.907,arrowleft,arrowright,1
S017,Ebbinghaus,0.3383,0.75,Ebbinghaus_0.75000_0.33830.png,A,10.0,902585.0,0.994,arrowleft,arrowleft,0
S017,Ebbinghaus,0.3383,0.45,Ebbinghaus_0.45000_0.33830.png,A,11.0,904503.0,0.847,arrowleft,arrowleft,0
S017,Ebbinghaus,0.20566,0.75,Ebbinghaus_0.75000_0.20566.png,A,12.0,906022.0,0.888,arrowleft,arrowleft,0
S017,Ebbinghaus,-0.3383,-0.45,Ebbinghaus_-0.4500_-0.3383.png,A,13.0,907769.0,0.885,arrowright,arrowright,0
S017,Ebbinghaus,0.5,0.75,Ebbinghaus_0.75000_0.50000.png,A,14.0,909549.0,0.884,arrowleft,arrowleft,0
S017,Ebbinghaus,0.20566,-0.45,Ebbinghaus_-0.4500_0.20566.png,A,15.0,911302.0,1.341,arrowleft,arrowleft,0
S017,Ebbinghaus,0.09684,-1.05,Ebbinghaus_-1.0500_0.09684.png,A,16.0,913433.0,1.273,arrowleft,arrowleft,0
S017,Ebbinghaus,0.3383,-0.15,Ebbinghaus_-0.1500_0.33830.png,A,17.0,915381.0,1.286,arrowleft,arrowleft,0
S017,Ebbinghaus,-0.09684,0.45,Ebbinghaus_0.45000_-0.09684.png,A,18.0,917725.0,1.346,arrowright,arrowright,0
S017,Ebbinghaus,0.09684,0.75,Ebbinghaus_0.75000_0.09684.png,A,19.0,919693.0,1.524,arrowright,arrowleft,1
S017,Ebbinghaus,0.3383,-0.75,Ebbinghaus_-0.7500_0.33830.png,A,20.0,922092.0,1.075,arrowleft,arrowleft,0
S017,Ebbinghaus,-0.5,-0.75,Ebbinghaus_-0.7500_-0.5000.png,A,21.0,924214.0,0.832,arrowright,arrowright,0
S017,Ebbinghaus,0.09684,0.15,Ebbinghaus_0.15000_0.09684.png,A,22.0,925695.0,1.58,arrowleft,arrowleft,0
S017,Ebbinghaus,0.09684,-0.15,Ebbinghaus_-0.1500_0.09684.png,A,23.0,928370.0,1.87,arrowleft,arrowleft,0
S017,Ebbinghaus,-0.09684,1.05,Ebbinghaus_1.05000_-0.09684.png,A,24.0,930903.0,3.29,arrowleft,arrowright,1
S017,Ebbinghaus,-0.3383,-0.75,Ebbinghaus_-0.7500_-0.3383.png,A,25.0,935022.0,0.704,arrowright,arrowright,0
S017,Ebbinghaus,0.5,1.35,Ebbinghaus_1.35000_0.50000.png,A,26.0,936590.0,0.806,arrowleft,arrowleft,0
S017,Ebbinghaus,-0.20566,-1.05,Ebbinghaus_-1.0500_-0.20566.png,A,27.0,938138.0,0.781,arrowright,arrowright,0
S017,Ebbinghaus,-0.09684,-1.05,Ebbinghaus_-1.0500_-0.09684.png,A,28.0,939664.0,0.691,arrowright,arrowright,0
S017,Ebbinghaus,0.3383,-0.45,Ebbinghaus_-0.4500_0.33830.png,A,29.0,941217.0,0.733,arrowleft,arrowleft,0
S017,Ebbinghaus,-0.5,0.15,Ebbinghaus_0.15000_-0.5000.png,A,30.0,942798.0,0.556,arrowright,arrowright,0
S017,Ebbinghaus,-0.20566,-1.35,Ebbinghaus_-1.3500_-0.20566.png,A,31.0,944378.0,0.662,arrowright,arrowright,0
S017,Ebbinghaus,0.20566,0.45,Ebbinghaus_0.45000_0.20566.png,A,32.0,945981.0,0.854,arrowleft,arrowleft,0
S017,Ebbinghaus,-0.3383,-1.05,Ebbinghaus_-1.0500_-0.3383.png,A,33.0,947848.0,0.634,arrowright,arrowright,0
S017,Ebbinghaus,0.20566,-1.35,Ebbinghaus_-1.3500_0.20566.png,A,34.0,949295.0,0.717,arrowleft,arrowleft,0
S017,Ebbinghaus,0.20566,1.35,Ebbinghaus_1.35000_0.20566.png,A,35.0,950798.0,2.302,arrowright,arrowleft,1
S017,Ebbinghaus,-0.3383,-0.15,Ebbinghaus_-0.1500_-0.3383.png,A,36.0,953841.0,0.625,arrowright,arrowright,0
S017,Ebbinghaus,-0.5,-1.05,Ebbinghaus_-1.0500_-0.5000.png,A,37.0,955359.0,0.508,arrowright,arrowright,0
S017,Ebbinghaus,-0.5,-1.35,Ebbinghaus_-1.3500_-0.5000.png,A,38.0,956509.0,0.588,arrowright,arrowright,0
S017,Ebbinghaus,0.5,1.05,Ebbinghaus_1.05000_0.50000.png,A,39.0,957997.0,0.626,arrowleft,arrowleft,0
S017,Ebbinghaus,0.20566,-1.05,Ebbinghaus_-1.0500_0.20566.png,A,40.0,959613.0,0.711,arrowleft,arrowleft,0
S017,Ebbinghaus,-0.09684,1.35,Ebbinghaus_1.35000_-0.09684.png,A,41.0,960959.0,0.888,arrowleft,arrowright,1
S017,Ebbinghaus,-0.5,-0.45,Ebbinghaus_-0.4500_-0.5000.png,A,42.0,962491.0,0.593,arrowright,arrowright,0
S017,Ebbinghaus,-0.20566,-0.75,Ebbinghaus_-0.7500_-0.20566.png,A,43.0,964050.0,0.865,arrowright,arrowright,0
S017,Ebbinghaus,0.09684,-0.75,Ebbinghaus_-0.7500_0.09684.png,A,44.0,965570.0,0.755,arrowleft,arrowleft,0
S017,Ebbinghaus,0.5,-0.75,Ebbinghaus_-0.7500_0.50000.png,A,45.0,967283.0,0.734,arrowleft,arrowleft,0
S017,Ebbinghaus,-0.09684,-0.15,Ebbinghaus_-0.1500_-0.09684.png,A,46.0,969094.0,1.035,arrowright,arrowright,0
S017,Ebbinghaus,-0.09684,0.75,Ebbinghaus_0.75000_-0.09684.png,A,47.0,971167.0,1.121,arrowleft,arrowright,1
S017,Ebbinghaus,-0.5,0.45,Ebbinghaus_0.45000_-0.5000.png,A,48.0,973048.0,0.598,arrowright,arrowright,0
S017,Ebbinghaus,-0.3383,0.15,Ebbinghaus_0.15000_-0.3383.png,A,49.0,974757.0,0.702,arrowright,arrowright,0
S017,Ebbinghaus,0.3383,0.15,Ebbinghaus_0.15000_0.33830.png,A,50.0,976316.0,0.63,arrowleft,arrowleft,0
S017,Ebbinghaus,0.3383,-1.05,Ebbinghaus_-1.0500_0.33830.png,A,51.0,977629.0,0.694,arrowleft,arrowleft,0
S017,Ebbinghaus,0.3383,1.05,Ebbinghaus_1.05000_0.33830.png,A,52.0,979033.0,0.572,arrowleft,arrowleft,0
S017,Ebbinghaus,-0.09684,-0.45,Ebbinghaus_-0.4500_-0.09684.png,A,53.0,980547.0,0.976,arrowright,arrowright,0
S017,Ebbinghaus,-0.09684,0.15,Ebbinghaus_0.15000_-0.09684.png,A,54.0,982591.0,1.927,arrowright,arrowright,0
S017,Ebbinghaus,-0.09684,-0.75,Ebbinghaus_-0.7500_-0.09684.png,A,55.0,985398.0,1.371,arrowright,arrowright,0
S017,Ebbinghaus,0.3383,-1.35,Ebbinghaus_-1.3500_0.33830.png,A,56.0,987805.0,0.623,arrowleft,arrowleft,0
S017,Ebbinghaus,-0.5,1.35,Ebbinghaus_1.35000_-0.5000.png,A,57.0,989133.0,0.742,arrowright,arrowright,0
S017,Ebbinghaus,-0.20566,-0.15,Ebbinghaus_-0.1500_-0.20566.png,A,58.0,990961.0,0.919,arrowright,arrowright,0
S017,Ebbinghaus,0.5,0.15,Ebbinghaus_0.15000_0.50000.png,A,59.0,992732.0,0.642,arrowleft,arrowleft,0
S017,Ebbinghaus,0.09684,1.05,Ebbinghaus_1.05000_0.09684.png,A,60.0,994339.0,3.198,arrowleft,arrowleft,0
S017,Ebbinghaus,0.5,-0.15,Ebbinghaus_-0.1500_0.50000.png,A,61.0,998478.0,0.679,arrowleft,arrowleft,0
S017,Ebbinghaus,-0.20566,0.15,Ebbinghaus_0.15000_-0.20566.png,A,62.0,1000080.0,0.664,arrowright,arrowright,0
S017,Ebbinghaus,0.3383,1.35,Ebbinghaus_1.35000_0.33830.png,A,63.0,1001622.0,0.584,arrowleft,arrowleft,0
S017,Ebbinghaus,-0.5,1.05,Ebbinghaus_1.05000_-0.5000.png,A,64.0,1003195.0,0.914,arrowright,arrowright,0
S017,Ebbinghaus,0.09684,-1.35,Ebbinghaus_-1.3500_0.09684.png,A,65.0,1004843.0,0.797,arrowleft,arrowleft,0
S017,Ebbinghaus,-0.20566,0.45,Ebbinghaus_0.45000_-0.20566.png,A,66.0,1006356.0,1.361,arrowright,arrowright,0
S017,Ebbinghaus,0.20566,-0.75,Ebbinghaus_-0.7500_0.20566.png,A,67.0,1008785.0,0.728,arrowleft,arrowleft,0
S017,Ebbinghaus,-0.5,0.75,Ebbinghaus_0.75000_-0.5000.png,A,68.0,1010465.0,0.709,arrowright,arrowright,0
S017,Ebbinghaus,0.09684,0.45,Ebbinghaus_0.45000_0.09684.png,A,69.0,1012128.0,0.552,arrowleft,arrowleft,0
S017,Ebbinghaus,0.09684,1.35,Ebbinghaus_1.35000_0.09684.png,A,70.0,1013375.0,1.227,arrowright,arrowleft,1
S017,Ebbinghaus,-0.3383,1.05,Ebbinghaus_1.05000_-0.3383.png,A,71.0,1015433.0,0.858,arrowright,arrowright,0
S017,Ebbinghaus,-0.20566,1.35,Ebbinghaus_1.35000_-0.20566.png,A,72.0,1017104.0,1.642,arrowright,arrowright,0
S017,Ebbinghaus,-0.3383,1.35,Ebbinghaus_1.35000_-0.3383.png,A,73.0,1019798.0,1.052,arrowright,arrowright,0
S017,Ebbinghaus,0.5,-1.35,Ebbinghaus_-1.3500_0.50000.png,A,74.0,1021842.0,0.609,arrowleft,arrowleft,0
S017,Ebbinghaus,0.09684,-0.45,Ebbinghaus_-0.4500_0.09684.png,A,75.0,1023437.0,0.67,arrowleft,arrowleft,0
S017,Ebbinghaus,0.5,0.45,Ebbinghaus_0.45000_0.50000.png,A,76.0,1025033.0,0.569,arrowleft,arrowleft,0
S017,Ebbinghaus,0.20566,1.05,Ebbinghaus_1.05000_0.20566.png,A,77.0,1026610.0,0.734,arrowleft,arrowleft,0
S017,Ebbinghaus,-0.3383,0.45,Ebbinghaus_0.45000_-0.3383.png,A,78.0,1028406.0,0.51,arrowright,arrowright,0
S017,Ebbinghaus,0.20566,-0.15,Ebbinghaus_-0.1500_0.20566.png,A,79.0,1029640.0,0.669,arrowleft,arrowleft,0
S017,Ebbinghaus,0.5,-0.45,Ebbinghaus_-0.4500_0.50000.png,A,80.0,1031250.0,0.629,arrowleft,arrowleft,0
S017,VerticalHorizontal,-0.20298,-13.5,VerticalHorizontal_-13.500_-0.20298.png,A,1.0,1049770.0,0.519,arrowright,arrowright,0
S017,VerticalHorizontal,-0.0581,40.5,VerticalHorizontal_40.5000_-0.0581.png,A,2.0,1051345.0,2.107,arrowright,arrowright,0
S017,VerticalHorizontal,-0.20298,4.5,VerticalHorizontal_4.50000_-0.20298.png,A,3.0,1054156.0,0.551,arrowright,arrowright,0
S017,VerticalHorizontal,-0.3,4.5,VerticalHorizontal_4.50000_-0.3000.png,A,4.0,1055347.0,0.53,arrowright,arrowright,0
S017,VerticalHorizontal,-0.12339,31.5,VerticalHorizontal_31.5000_-0.12339.png,A,5.0,1056614.0,1.049,arrowright,arrowright,0
S017,VerticalHorizontal,0.3,-40.5,VerticalHorizontal_-40.500_0.30000.png,A,6.0,1058386.0,0.525,arrowleft,arrowleft,0
S017,VerticalHorizontal,-0.12339,40.5,VerticalHorizontal_40.5000_-0.12339.png,A,7.0,1059549.0,0.683,arrowright,arrowright,0
S017,VerticalHorizontal,0.20298,-40.5,VerticalHorizontal_-40.500_0.20298.png,A,8.0,1061330.0,0.482,arrowleft,arrowleft,0
S017,VerticalHorizontal,0.0581,-31.5,VerticalHorizontal_-31.500_0.05810.png,A,9.0,1062705.0,0.661,arrowleft,arrowleft,0
S017,VerticalHorizontal,0.3,-31.5,VerticalHorizontal_-31.500_0.30000.png,A,10.0,1064025.0,0.508,arrowleft,arrowleft,0
S017,VerticalHorizontal,0.0581,13.5,VerticalHorizontal_13.5000_0.05810.png,A,11.0,1065505.0,1.901,arrowleft,arrowleft,0
S017,VerticalHorizontal,-0.20298,-22.5,VerticalHorizontal_-22.500_-0.20298.png,A,12.0,1068204.0,0.466,arrowright,arrowright,0
S017,VerticalHorizontal,0.12339,13.5,VerticalHorizontal_13.5000_0.12339.png,A,13.0,1069381.0,1.002,arrowleft,arrowleft,0
S017,VerticalHorizontal,-0.3,-13.5,VerticalHorizontal_-13.500_-0.3000.png,A,14.0,1071287.0,0.491,arrowright,arrowright,0
S017,VerticalHorizontal,0.0581,4.5,VerticalHorizontal_4.50000_0.05810.png,A,15.0,1072484.0,0.695,arrowleft,arrowleft,0
S017,VerticalHorizontal,-0.0581,4.5,VerticalHorizontal_4.50000_-0.0581.png,A,16.0,1074027.0,0.633,arrowright,arrowright,0
S017,VerticalHorizontal,-0.20298,22.5,VerticalHorizontal_22.5000_-0.20298.png,A,17.0,1075692.0,0.474,arrowright,arrowright,0
S017,VerticalHorizontal,0.0581,-13.5,VerticalHorizontal_-13.500_0.05810.png,A,18.0,1077156.0,0.59,arrowleft,arrowleft,0
S017,VerticalHorizontal,0.12339,-4.5,VerticalHorizontal_-4.5000_0.12339.png,A,19.0,1078507.0,0.605,arrowleft,arrowleft,0
S017,VerticalHorizontal,0.12339,31.5,VerticalHorizontal_31.5000_0.12339.png,A,20.0,1079957.0,1.179,arrowleft,arrowleft,0
S017,VerticalHorizontal,0.0581,-4.5,VerticalHorizontal_-4.5000_0.05810.png,A,21.0,1081948.0,1.085,arrowleft,arrowleft,0
S017,VerticalHorizontal,0.20298,-13.5,VerticalHorizontal_-13.500_0.20298.png,A,22.0,1084067.0,0.517,arrowleft,arrowleft,0
S017,VerticalHorizontal,-0.20298,-40.5,VerticalHorizontal_-40.500_-0.20298.png,A,23.0,1085465.0,0.493,arrowright,arrowright,0
S017,VerticalHorizontal,0.3,22.5,VerticalHorizontal_22.5000_0.30000.png,A,24.0,1086786.0,0.58,arrowleft,arrowleft,0
S017,VerticalHorizontal,0.12339,4.5,VerticalHorizontal_4.50000_0.12339.png,A,25.0,1088310.0,0.644,arrowleft,arrowleft,0
S017,VerticalHorizontal,0.20298,4.5,VerticalHorizontal_4.50000_0.20298.png,A,26.0,1090037.0,0.598,arrowleft,arrowleft,0
S017,VerticalHorizontal,-0.12339,22.5,VerticalHorizontal_22.5000_-0.12339.png,A,27.0,1091714.0,0.578,arrowright,arrowright,0
S017,VerticalHorizontal,-0.20298,13.5,VerticalHorizontal_13.5000_-0.20298.png,A,28.0,1093157.0,1.229,arrowright,arrowright,0
S017,VerticalHorizontal,0.20298,40.5,VerticalHorizontal_40.5000_0.20298.png,A,29.0,1095406.0,1.156,arrowleft,arrowleft,0
S017,VerticalHorizontal,-0.3,31.5,VerticalHorizontal_31.5000_-0.3000.png,A,30.0,1097176.0,0.577,arrowright,arrowright,0
S017,VerticalHorizontal,0.20298,-22.5,VerticalHorizontal_-22.500_0.20298.png,A,31.0,1098753.0,0.509,arrowleft,arrowleft,0
S017,VerticalHorizontal,0.3,-22.5,VerticalHorizontal_-22.500_0.30000.png,A,32.0,1100259.0,0.522,arrowleft,arrowleft,0
S017,VerticalHorizontal,-0.0581,-40.5,VerticalHorizontal_-40.500_-0.0581.png,A,33.0,1101481.0,0.594,arrowright,arrowright,0
S017,VerticalHorizontal,0.3,-13.5,VerticalHorizontal_-13.500_0.30000.png,A,34.0,1102967.0,0.427,arrowleft,arrowleft,0
S017,VerticalHorizontal,0.20298,22.5,VerticalHorizontal_22.5000_0.20298.png,A,35.0,1104418.0,0.718,arrowleft,arrowleft,0
S017,VerticalHorizontal,0.0581,22.5,VerticalHorizontal_22.5000_0.05810.png,A,36.0,1105873.0,2.981,arrowright,arrowleft,1
S017,VerticalHorizontal,-0.20298,40.5,VerticalHorizontal_40.5000_-0.20298.png,A,37.0,1109763.0,0.782,arrowright,arrowright,0
S017,VerticalHorizontal,0.20298,13.5,VerticalHorizontal_13.5000_0.20298.png,A,38.0,1111338.0,0.537,arrowleft,arrowleft,0
S017,VerticalHorizontal,-0.3,-22.5,VerticalHorizontal_-22.500_-0.3000.png,A,39.0,1112682.0,0.432,arrowright,arrowright,0
S017,VerticalHorizontal,-0.12339,13.5,VerticalHorizontal_13.5000_-0.12339.png,A,40.0,1113784.0,0.642,arrowright,arrowright,0
S017,VerticalHorizontal,-0.20298,-31.5,VerticalHorizontal_-31.500_-0.20298.png,A,41.0,1115349.0,0.537,arrowright,arrowright,0
S017,VerticalHorizontal,-0.20298,31.5,VerticalHorizontal_31.5000_-0.20298.png,A,42.0,1116775.0,0.621,arrowright,arrowright,0
S017,VerticalHorizontal,0.3,31.5,VerticalHorizontal_31.5000_0.30000.png,A,43.0,1118491.0,0.701,arrowleft,arrowleft,0
S017,VerticalHorizontal,0.0581,31.5,VerticalHorizontal_31.5000_0.05810.png,A,44.0,1119972.0,2.173,arrowright,arrowleft,1
S017,VerticalHorizontal,0.12339,-40.5,VerticalHorizontal_-40.500_0.12339.png,A,45.0,1123070.0,0.462,arrowleft,arrowleft,0
S017,VerticalHorizontal,-0.12339,-13.5,VerticalHorizontal_-13.500_-0.12339.png,A,46.0,1124536.0,0.515,arrowright,arrowright,0
S017,VerticalHorizontal,0.12339,40.5,VerticalHorizontal_40.5000_0.12339.png,A,47.0,1126156.0,1.837,arrowleft,arrowleft,0
S017,VerticalHorizontal,-0.3,-4.5,VerticalHorizontal_-4.5000_-0.3000.png,A,48.0,1128998.0,0.485,arrowright,arrowright,0
S017,VerticalHorizontal,0.12339,-22.5,VerticalHorizontal_-22.500_0.12339.png,A,49.0,1130452.0,0.519,arrowleft,arrowleft,0
S017,VerticalHorizontal,-0.12339,-40.5,VerticalHorizontal_-40.500_-0.12339.png,A,50.0,1132015.0,0.383,arrowright,arrowright,0
S017,VerticalHorizontal,0.20298,31.5,VerticalHorizontal_31.5000_0.20298.png,A,51.0,1133334.0,0.744,arrowleft,arrowleft,0
S017,VerticalHorizontal,0.12339,-13.5,VerticalHorizontal_-13.500_0.12339.png,A,52.0,1135145.0,0.913,arrowleft,arrowleft,0
S017,VerticalHorizontal,-0.0581,13.5,VerticalHorizontal_13.5000_-0.0581.png,A,53.0,1137059.0,0.922,arrowright,arrowright,0
S017,VerticalHorizontal,-0.12339,-22.5,VerticalHorizontal_-22.500_-0.12339.png,A,54.0,1139036.0,0.565,arrowright,arrowright,0
S017,VerticalHorizontal,0.0581,-22.5,VerticalHorizontal_-22.500_0.05810.png,A,55.0,1140215.0,0.755,arrowleft,arrowleft,0
S017,VerticalHorizontal,-0.20298,-4.5,VerticalHorizontal_-4.5000_-0.20298.png,A,56.0,1141688.0,0.421,arrowright,arrowright,0
S017,VerticalHorizontal,0.0581,-40.5,VerticalHorizontal_-40.500_0.05810.png,A,57.0,1142745.0,0.4,arrowleft,arrowleft,0
S017,VerticalHorizontal,-0.3,-40.5,VerticalHorizontal_-40.500_-0.3000.png,A,58.0,1143936.0,0.344,arrowright,arrowright,0
S017,VerticalHorizontal,-0.0581,-4.5,VerticalHorizontal_-4.5000_-0.0581.png,A,59.0,1145347.0,1.226,arrowright,arrowright,0
S017,VerticalHorizontal,-0.0581,22.5,VerticalHorizontal_22.5000_-0.0581.png,A,60.0,1147326.0,0.999,arrowleft,arrowright,1
S017,VerticalHorizontal,-0.3,40.5,VerticalHorizontal_40.5000_-0.3000.png,A,61.0,1149171.0,0.355,arrowright,arrowright,0
S017,VerticalHorizontal,-0.3,22.5,VerticalHorizontal_22.5000_-0.3000.png,A,62.0,1150419.0,0.514,arrowright,arrowright,0
S017,VerticalHorizontal,-0.0581,-31.5,VerticalHorizontal_-31.500_-0.0581.png,A,63.0,1151661.0,0.671,arrowright,arrowright,0
S017,VerticalHorizontal,-0.0581,31.5,VerticalHorizontal_31.5000_-0.0581.png,A,64.0,1152949.0,1.126,arrowright,arrowright,0
S017,VerticalHorizontal,0.20298,-31.5,VerticalHorizontal_-31.500_0.20298.png,A,65.0,1154900.0,0.487,arrowleft,arrowleft,0
S017,VerticalHorizontal,0.12339,-31.5,VerticalHorizontal_-31.500_0.12339.png,A,66.0,1156465.0,0.563,arrowleft,arrowleft,0
S017,VerticalHorizontal,-0.12339,-4.5,VerticalHorizontal_-4.5000_-0.12339.png,A,67.0,1157778.0,0.611,arrowright,arrowright,0
S017,VerticalHorizontal,-0.12339,-31.5,VerticalHorizontal_-31.500_-0.12339.png,A,68.0,1159121.0,0.474,arrowright,arrowright,0
S017,VerticalHorizontal,0.3,-4.5,VerticalHorizontal_-4.5000_0.30000.png,A,69.0,1160385.0,0.474,arrowleft,arrowleft,0
S017,VerticalHorizontal,0.3,4.5,VerticalHorizontal_4.50000_0.30000.png,A,70.0,1161573.0,0.525,arrowleft,arrowleft,0
S017,VerticalHorizontal,0.12339,22.5,VerticalHorizontal_22.5000_0.12339.png,A,71.0,1163157.0,1.399,arrowleft,arrowleft,0
S017,VerticalHorizontal,-0.0581,-13.5,VerticalHorizontal_-13.500_-0.0581.png,A,72.0,1165486.0,0.561,arrowright,arrowright,0
S017,VerticalHorizontal,-0.3,-31.5,VerticalHorizontal_-31.500_-0.3000.png,A,73.0,1166822.0,0.49,arrowright,arrowright,0
S017,VerticalHorizontal,-0.12339,4.5,VerticalHorizontal_4.50000_-0.12339.png,A,74.0,1168198.0,0.811,arrowright,arrowright,0
S017,VerticalHorizontal,0.20298,-4.5,VerticalHorizontal_-4.5000_0.20298.png,A,75.0,1169745.0,0.474,arrowleft,arrowleft,0
S017,VerticalHorizontal,0.0581,40.5,VerticalHorizontal_40.5000_0.05810.png,A,76.0,1171216.0,0.405,arrowright,arrowleft,1
S017,VerticalHorizontal,0.3,40.5,VerticalHorizontal_40.5000_0.30000.png,A,77.0,1172291.0,0.725,arrowleft,arrowleft,0
S017,VerticalHorizontal,-0.3,13.5,VerticalHorizontal_13.5000_-0.3000.png,A,78.0,1173791.0,0.441,arrowright,arrowright,0
S017,VerticalHorizontal,-0.0581,-22.5,VerticalHorizontal_-22.500_-0.0581.png,A,79.0,1174908.0,0.61,arrowright,arrowright,0
S017,VerticalHorizontal,0.3,13.5,VerticalHorizontal_13.5000_0.30000.png,A,80.0,1176262.0,0.415,arrowleft,arrowleft,0
S017,MullerLyer,0.045,-12.0,MullerLyer_-12.000_0.04500.png,B,1.0,1432218.0,0.499,arrowup,arrowup,0
S017,MullerLyer,0.1337,-12.0,MullerLyer_-12.000_0.13370.png,B,2.0,1433444.0,0.429,arrowup,arrowup,0
S017,MullerLyer,0.1337,-6.0,MullerLyer_-6.0000_0.13370.png,B,3.0,1434497.0,0.547,arrowup,arrowup,0
S017,MullerLyer,-0.37364,-6.0,MullerLyer_-6.0000_-0.37364.png,B,4.0,1435830.0,0.55,arrowdown,arrowdown,0
S017,MullerLyer,0.1337,6.0,MullerLyer_6.00000_0.13370.png,B,5.0,1437187.0,0.876,arrowup,arrowup,0
S017,MullerLyer,-0.045,30.0,MullerLyer_30.0000_-0.0450.png,B,6.0,1439074.0,0.445,arrowup,arrowdown,1
S017,MullerLyer,-0.1337,-30.0,MullerLyer_-30.000_-0.1337.png,B,7.0,1440161.0,0.984,arrowdown,arrowdown,0
S017,MullerLyer,-0.1337,30.0,MullerLyer_30.0000_-0.1337.png,B,8.0,1442031.0,0.479,arrowup,arrowdown,1
S017,MullerLyer,-0.37364,-18.0,MullerLyer_-18.000_-0.37364.png,B,9.0,1443154.0,0.442,arrowdown,arrowdown,0
S017,MullerLyer,0.24183,-24.0,MullerLyer_-24.000_0.24183.png,B,10.0,1444558.0,0.447,arrowup,arrowup,0
S017,MullerLyer,0.24183,-12.0,MullerLyer_-12.000_0.24183.png,B,11.0,1445854.0,0.43,arrowup,arrowup,0
S017,MullerLyer,-0.1337,-6.0,MullerLyer_-6.0000_-0.1337.png,B,12.0,1447182.0,0.568,arrowdown,arrowdown,0
S017,MullerLyer,0.37364,-30.0,MullerLyer_-30.000_0.37364.png,B,13.0,1448807.0,0.414,arrowup,arrowup,0
S017,MullerLyer,0.24183,6.0,MullerLyer_6.00000_0.24183.png,B,14.0,1450182.0,0.901,arrowup,arrowup,0
S017,MullerLyer,0.24183,-30.0,MullerLyer_-30.000_0.24183.png,B,15.0,1452005.0,0.504,arrowup,arrowup,0
S017,MullerLyer,0.1337,18.0,MullerLyer_18.0000_0.13370.png,B,16.0,1453459.0,3.229,arrowdown,arrowup,1
S017,MullerLyer,0.24183,-6.0,MullerLyer_-6.0000_0.24183.png,B,17.0,1457490.0,0.506,arrowup,arrowup,0
S017,MullerLyer,0.1337,30.0,MullerLyer_30.0000_0.13370.png,B,18.0,1458693.0,0.587,arrowdown,arrowup,1
S017,MullerLyer,0.37364,-18.0,MullerLyer_-18.000_0.37364.png,B,19.0,1460114.0,0.465,arrowup,arrowup,0
S017,MullerLyer,0.24183,-18.0,MullerLyer_-18.000_0.24183.png,B,20.0,1461199.0,0.549,arrowup,arrowup,0
S017,MullerLyer,-0.24183,-30.0,MullerLyer_-30.000_-0.24183.png,B,21.0,1462615.0,0.49,arrowdown,arrowdown,0
S017,MullerLyer,-0.045,12.0,MullerLyer_12.0000_-0.0450.png,B,22.0,1464158.0,1.837,arrowup,arrowdown,1
S017,MullerLyer,0.37364,12.0,MullerLyer_12.0000_0.37364.png,B,23.0,1466833.0,1.004,arrowup,arrowup,0
S017,MullerLyer,-0.37364,12.0,MullerLyer_12.0000_-0.37364.png,B,24.0,1468846.0,0.623,arrowdown,arrowdown,0
S017,MullerLyer,-0.045,-24.0,MullerLyer_-24.000_-0.0450.png,B,25.0,1470468.0,0.562,arrowup,arrowdown,1
S017,MullerLyer,0.37364,30.0,MullerLyer_30.0000_0.37364.png,B,26.0,1472007.0,1.254,arrowup,arrowup,0
S017,MullerLyer,0.1337,12.0,MullerLyer_12.0000_0.13370.png,B,27.0,1474117.0,2.321,arrowdown,arrowup,1
S017,MullerLyer,0.37364,6.0,MullerLyer_6.00000_0.37364.png,B,28.0,1477501.0,0.612,arrowup,arrowup,0
S017,MullerLyer,-0.37364,-24.0,MullerLyer_-24.000_-0.37364.png,B,29.0,1479062.0,0.434,arrowdown,arrowdown,0
S017,MullerLyer,0.37364,-6.0,MullerLyer_-6.0000_0.37364.png,B,30.0,1480247.0,0.464,arrowup,arrowup,0
S017,MullerLyer,-0.045,24.0,MullerLyer_24.0000_-0.0450.png,B,31.0,1481639.0,0.646,arrowup,arrowdown,1
S017,MullerLyer,-0.045,-18.0,MullerLyer_-18.000_-0.0450.png,B,32.0,1483124.0,0.488,arrowdown,arrowdown,0
S017,MullerLyer,-0.37364,-12.0,MullerLyer_-12.000_-0.37364.png,B,33.0,1484481.0,0.497,arrowdown,arrowdown,0
S017,MullerLyer,0.37364,-12.0,MullerLyer_-12.000_0.37364.png,B,34.0,1485652.0,0.454,arrowup,arrowup,0
S017,MullerLyer,0.24183,12.0,MullerLyer_12.0000_0.24183.png,B,35.0,1486791.0,0.781,arrowup,arrowup,0
S017,MullerLyer,-0.045,-6.0,MullerLyer_-6.0000_-0.0450.png,B,36.0,1488487.0,0.586,arrowdown,arrowdown,0
S017,MullerLyer,0.1337,-18.0,MullerLyer_-18.000_0.13370.png,B,37.0,1489761.0,0.474,arrowup,arrowup,0
S017,MullerLyer,-0.045,18.0,MullerLyer_18.0000_-0.0450.png,B,38.0,1490874.0,0.756,arrowup,arrowdown,1
S017,MullerLyer,0.045,30.0,MullerLyer_30.0000_0.04500.png,B,39.0,1492391.0,0.509,arrowdown,arrowup,1
S017,MullerLyer,0.045,-30.0,MullerLyer_-30.000_0.04500.png,B,40.0,1493579.0,0.422,arrowup,arrowup,0
S017,MullerLyer,-0.37364,6.0,MullerLyer_6.00000_-0.37364.png,B,41.0,1495068.0,0.516,arrowdown,arrowdown,0
S017,MullerLyer,-0.24183,24.0,MullerLyer_24.0000_-0.24183.png,B,42.0,1496618.0,2.602,arrowup,arrowdown,1
S017,MullerLyer,0.37364,-24.0,MullerLyer_-24.000_0.37364.png,B,43.0,1499856.0,0.502,arrowup,arrowup,0
S017,MullerLyer,-0.37364,30.0,MullerLyer_30.0000_-0.37364.png,B,44.0,1501385.0,1.329,arrowdown,arrowdown,0
S017,MullerLyer,0.045,-6.0,MullerLyer_-6.0000_0.04500.png,B,45.0,1503764.0,0.648,arrowup,arrowup,0
S017,MullerLyer,-0.045,-12.0,MullerLyer_-12.000_-0.0450.png,B,46.0,1505396.0,0.852,arrowdown,arrowdown,0
S017,MullerLyer,-0.24183,12.0,MullerLyer_12.0000_-0.24183.png,B,47.0,1506992.0,0.945,arrowdown,arrowdown,0
S017,MullerLyer,0.1337,24.0,MullerLyer_24.0000_0.13370.png,B,48.0,1508867.0,0.993,arrowdown,arrowup,1
S017,MullerLyer,-0.37364,-30.0,MullerLyer_-30.000_-0.37364.png,B,49.0,1510767.0,0.527,arrowdown,arrowdown,0
S017,MullerLyer,-0.37364,18.0,MullerLyer_18.0000_-0.37364.png,B,50.0,1512360.0,1.304,arrowdown,arrowdown,0
S017,MullerLyer,-0.1337,24.0,MullerLyer_24.0000_-0.1337.png,B,51.0,1514536.0,0.732,arrowup,arrowdown,1
S017,MullerLyer,-0.045,6.0,MullerLyer_6.00000_-0.0450.png,B,52.0,1515998.0,1.889,arrowup,arrowdown,1
S017,MullerLyer,-0.1337,18.0,MullerLyer_18.0000_-0.1337.png,B,53.0,1518763.0,1.176,arrowup,arrowdown,1
S017,MullerLyer,-0.24183,30.0,MullerLyer_30.0000_-0.24183.png,B,54.0,1520574.0,3.102,arrowup,arrowdown,1
S017,MullerLyer,0.045,18.0,MullerLyer_18.0000_0.04500.png,B,55.0,1524625.0,0.796,arrowdown,arrowup,1
S017,MullerLyer,-0.24183,18.0,MullerLyer_18.0000_-0.24183.png,B,56.0,1526433.0,1.607,arrowdown,arrowdown,0
S017,MullerLyer,0.24183,30.0,MullerLyer_30.0000_0.24183.png,B,57.0,1528766.0,1.415,arrowup,arrowup,0
S017,MullerLyer,0.37364,18.0,MullerLyer_18.0000_0.37364.png,B,58.0,1531282.0,0.872,arrowup,arrowup,0
S017,MullerLyer,0.045,24.0,MullerLyer_24.0000_0.04500.png,B,59.0,1532866.0,0.571,arrowdown,arrowup,1
S017,MullerLyer,-0.24183,-12.0,MullerLyer_-12.000_-0.24183.png,B,60.0,1534494.0,0.597,arrowdown,arrowdown,0
S017,MullerLyer,-0.045,-30.0,MullerLyer_-30.000_-0.0450.png,B,61.0,1536046.0,0.485,arrowdown,arrowdown,0
S017,MullerLyer,0.1337,-24.0,MullerLyer_-24.000_0.13370.png,B,62.0,1537271.0,0.526,arrowup,arrowup,0
S017,MullerLyer,-0.24183,6.0,MullerLyer_6.00000_-0.24183.png,B,63.0,1538889.0,1.909,arrowdown,arrowdown,0
S017,MullerLyer,-0.1337,-24.0,MullerLyer_-24.000_-0.1337.png,B,64.0,1541905.0,0.947,arrowdown,arrowdown,0
S017,MullerLyer,0.37364,24.0,MullerLyer_24.0000_0.37364.png,B,65.0,1543886.0,1.41,arrowup,arrowup,0
S017,MullerLyer,-0.1337,6.0,MullerLyer_6.00000_-0.1337.png,B,66.0,1546334.0,3.992,arrowdown,arrowdown,0
S017,MullerLyer,0.24183,18.0,MullerLyer_18.0000_0.24183.png,B,67.0,1551378.0,1.173,arrowup,arrowup,0
S017,MullerLyer,0.045,12.0,MullerLyer_12.0000_0.04500.png,B,68.0,1553386.0,0.811,arrowdown,arrowup,1
S017,MullerLyer,0.045,-18.0,MullerLyer_-18.000_0.04500.png,B,69.0,1554807.0,0.524,arrowup,arrowup,0
S017,MullerLyer,0.045,-24.0,MullerLyer_-24.000_0.04500.png,B,70.0,1556367.0,0.531,arrowup,arrowup,0
S017,MullerLyer,0.1337,-30.0,MullerLyer_-30.000_0.13370.png,B,71.0,1557869.0,0.524,arrowup,arrowup,0
S017,MullerLyer,0.045,6.0,MullerLyer_6.00000_0.04500.png,B,72.0,1559300.0,1.192,arrowdown,arrowup,1
S017,MullerLyer,-0.37364,24.0,MullerLyer_24.0000_-0.37364.png,B,73.0,1561341.0,1.173,arrowdown,arrowdown,0
S017,MullerLyer,-0.1337,-18.0,MullerLyer_-18.000_-0.1337.png,B,74.0,1563270.0,0.584,arrowdown,arrowdown,0
S017,MullerLyer,-0.1337,-12.0,MullerLyer_-12.000_-0.1337.png,B,75.0,1564596.0,0.571,arrowdown,arrowdown,0
S017,MullerLyer,-0.24183,-24.0,MullerLyer_-24.000_-0.24183.png,B,76.0,1565882.0,0.508,arrowdown,arrowdown,0
S017,MullerLyer,0.24183,24.0,MullerLyer_24.0000_0.24183.png,B,77.0,1567342.0,1.369,arrowup,arrowup,0
S017,MullerLyer,-0.1337,12.0,MullerLyer_12.0000_-0.1337.png,B,78.0,1569340.0,2.321,arrowup,arrowdown,1
S017,MullerLyer,-0.24183,-18.0,MullerLyer_-18.000_-0.24183.png,B,79.0,1572759.0,0.549,arrowdown,arrowdown,0
S017,MullerLyer,-0.24183,-6.0,MullerLyer_-6.0000_-0.24183.png,B,80.0,1574307.0,0.622,arrowdown,arrowdown,0
S017,Ebbinghaus,0.41515,0.3,Ebbinghaus_0.30000_0.41515.png,B,1.0,1591914.0,0.916,arrowleft,arrowleft,0
S017,Ebbinghaus,0.14856,0.6,Ebbinghaus_0.60000_0.14856.png,B,2.0,1593531.0,2.461,arrowleft,arrowleft,0
S017,Ebbinghaus,0.2687,-1.2,Ebbinghaus_-1.2000_0.26870.png,B,3.0,1596612.0,0.859,arrowleft,arrowleft,0
S017,Ebbinghaus,0.14856,1.5,Ebbinghaus_1.50000_0.14856.png,B,4.0,1598342.0,2.298,arrowright,arrowleft,1
S017,Ebbinghaus,0.05,-1.2,Ebbinghaus_-1.2000_0.05000.png,B,5.0,1601283.0,0.983,arrowleft,arrowleft,0
S017,Ebbinghaus,0.41515,-0.6,Ebbinghaus_-0.6000_0.41515.png,B,6.0,1603039.0,0.725,arrowleft,arrowleft,0
S017,Ebbinghaus,0.05,-1.5,Ebbinghaus_-1.5000_0.05000.png,B,7.0,1604400.0,1.051,arrowleft,arrowleft,0
S017,Ebbinghaus,0.14856,-1.2,Ebbinghaus_-1.2000_0.14856.png,B,8.0,1606280.0,0.824,arrowleft,arrowleft,0
S017,Ebbinghaus,-0.2687,-0.3,Ebbinghaus_-0.3000_-0.2687.png,B,9.0,1607715.0,0.589,arrowright,arrowright,0
S017,Ebbinghaus,-0.14856,1.5,Ebbinghaus_1.50000_-0.14856.png,B,10.0,1609020.0,0.817,arrowleft,arrowright,1
S017,Ebbinghaus,0.41515,0.9,Ebbinghaus_0.90000_0.41515.png,B,11.0,1610910.0,0.643,arrowleft,arrowleft,0
S017,Ebbinghaus,0.05,0.3,Ebbinghaus_0.30000_0.05000.png,B,12.0,1612203.0,1.09,arrowleft,arrowleft,0
S017,Ebbinghaus,0.14856,0.9,Ebbinghaus_0.90000_0.14856.png,B,13.0,1614232.0,1.04,arrowleft,arrowleft,0
S017,Ebbinghaus,0.05,1.5,Ebbinghaus_1.50000_0.05000.png,B,14.0,1615979.0,1.001,arrowright,arrowleft,1
S017,Ebbinghaus,-0.05,0.9,Ebbinghaus_0.90000_-0.0500.png,B,15.0,1617978.0,0.816,arrowleft,arrowright,1
S017,Ebbinghaus,-0.2687,1.5,Ebbinghaus_1.50000_-0.2687.png,B,16.0,1619841.0,0.817,arrowright,arrowright,0
S017,Ebbinghaus,-0.41515,-1.5,Ebbinghaus_-1.5000_-0.41515.png,B,17.0,1621583.0,0.747,arrowright,arrowright,0
S017,Ebbinghaus,-0.2687,0.3,Ebbinghaus_0.30000_-0.2687.png,B,18.0,1623123.0,0.639,arrowright,arrowright,0
S017,Ebbinghaus,-0.41515,-0.6,Ebbinghaus_-0.6000_-0.41515.png,B,19.0,1624381.0,0.743,arrowright,arrowright,0
S017,Ebbinghaus,-0.2687,1.2,Ebbinghaus_1.20000_-0.2687.png,B,20.0,1625955.0,1.04,arrowright,arrowright,0
S017,Ebbinghaus,-0.41515,1.5,Ebbinghaus_1.50000_-0.41515.png,B,21.0,1627982.0,0.73,arrowright,arrowright,0
S017,Ebbinghaus,-0.14856,-0.6,Ebbinghaus_-0.6000_-0.14856.png,B,22.0,1629760.0,0.849,arrowright,arrowright,0
S017,Ebbinghaus,-0.14856,-0.3,Ebbinghaus_-0.3000_-0.14856.png,B,23.0,1631644.0,0.665,arrowright,arrowright,0
S017,Ebbinghaus,0.14856,-0.6,Ebbinghaus_-0.6000_0.14856.png,B,24.0,1633347.0,0.737,arrowright,arrowleft,1
S017,Ebbinghaus,0.2687,-0.3,Ebbinghaus_-0.3000_0.26870.png,B,25.0,1635095.0,0.72,arrowleft,arrowleft,0
S017,Ebbinghaus,0.2687,1.5,Ebbinghaus_1.50000_0.26870.png,B,26.0,1636579.0,0.844,arrowleft,arrowleft,0
S017,Ebbinghaus,0.2687,0.3,Ebbinghaus_0.30000_0.26870.png,B,27.0,1638405.0,0.837,arrowleft,arrowleft,0
S017,Ebbinghaus,-0.14856,0.9,Ebbinghaus_0.90000_-0.14856.png,B,28.0,1639877.0,1.122,arrowright,arrowright,0
S017,Ebbinghaus,-0.2687,-1.2,Ebbinghaus_-1.2000_-0.2687.png,B,29.0,1641811.0,0.653,arrowright,arrowright,0
S017,Ebbinghaus,-0.41515,0.9,Ebbinghaus_0.90000_-0.41515.png,B,30.0,1643256.0,0.676,arrowright,arrowright,0
S017,Ebbinghaus,-0.05,0.3,Ebbinghaus_0.30000_-0.0500.png,B,31.0,1644544.0,1.265,arrowright,arrowright,0
S017,Ebbinghaus,-0.05,1.2,Ebbinghaus_1.20000_-0.0500.png,B,32.0,1646706.0,1.07,arrowleft,arrowright,1
S017,Ebbinghaus,-0.05,-0.3,Ebbinghaus_-0.3000_-0.0500.png,B,33.0,1648793.0,0.905,arrowright,arrowright,0
S017,Ebbinghaus,0.2687,1.2,Ebbinghaus_1.20000_0.26870.png,B,34.0,1650313.0,0.659,arrowleft,arrowleft,0
S017,Ebbinghaus,0.05,-0.9,Ebbinghaus_-0.9000_0.05000.png,B,35.0,1651929.0,0.825,arrowleft,arrowleft,0
S017,Ebbinghaus,0.2687,0.6,Ebbinghaus_0.60000_0.26870.png,B,36.0,1653548.0,0.619,arrowleft,arrowleft,0
S017,Ebbinghaus,-0.05,-1.2,Ebbinghaus_-1.2000_-0.0500.png,B,37.0,1655026.0,0.837,arrowright,arrowright,0
S017,Ebbinghaus,-0.2687,-1.5,Ebbinghaus_-1.5000_-0.2687.png,B,38.0,1656561.0,0.634,arrowright,arrowright,0
S017,Ebbinghaus,0.41515,-1.5,Ebbinghaus_-1.5000_0.41515.png,B,39.0,1658136.0,0.697,arrowleft,arrowleft,0
S017,Ebbinghaus,-0.05,0.6,Ebbinghaus_0.60000_-0.0500.png,B,40.0,1659715.0,1.314,arrowright,arrowright,0
S017,Ebbinghaus,-0.41515,0.3,Ebbinghaus_0.30000_-0.41515.png,B,41.0,1661993.0,0.615,arrowright,arrowright,0
S017,Ebbinghaus,-0.14856,0.6,Ebbinghaus_0.60000_-0.14856.png,B,42.0,1663654.0,1.711,arrowright,arrowright,0
S017,Ebbinghaus,-0.41515,-1.2,Ebbinghaus_-1.2000_-0.41515.png,B,43.0,1666453.0,0.521,arrowright,arrowright,0
S017,Ebbinghaus,-0.2687,0.6,Ebbinghaus_0.60000_-0.2687.png,B,44.0,1667940.0,0.503,arrowright,arrowright,0
S017,Ebbinghaus,0.2687,-1.5,Ebbinghaus_-1.5000_0.26870.png,B,45.0,1669391.0,0.651,arrowleft,arrowleft,0
S017,Ebbinghaus,-0.41515,-0.3,Ebbinghaus_-0.3000_-0.41515.png,B,46.0,1671052.0,0.566,arrowright,arrowright,0
S017,Ebbinghaus,-0.05,-1.5,Ebbinghaus_-1.5000_-0.0500.png,B,47.0,1672406.0,0.891,arrowright,arrowright,0
S017,Ebbinghaus,0.41515,-0.3,Ebbinghaus_-0.3000_0.41515.png,B,48.0,1674247.0,0.675,arrowleft,arrowleft,0
S017,Ebbinghaus,0.14856,0.3,Ebbinghaus_0.30000_0.14856.png,B,49.0,1675736.0,0.773,arrowleft,arrowleft,0
S017,Ebbinghaus,-0.14856,-1.5,Ebbinghaus_-1.5000_-0.14856.png,B,50.0,1677433.0,0.713,arrowright,arrowright,0
S017,Ebbinghaus,0.14856,1.2,Ebbinghaus_1.20000_0.14856.png,B,51.0,1678784.0,0.738,arrowleft,arrowleft,0
S017,Ebbinghaus,0.14856,-1.5,Ebbinghaus_-1.5000_0.14856.png,B,52.0,1680141.0,0.823,arrowleft,arrowleft,0
S017,Ebbinghaus,0.14856,-0.3,Ebbinghaus_-0.3000_0.14856.png,B,53.0,1681922.0,0.715,arrowleft,arrowleft,0
S017,Ebbinghaus,0.05,-0.6,Ebbinghaus_-0.6000_0.05000.png,B,54.0,1683647.0,0.895,arrowleft,arrowleft,0
S017,Ebbinghaus,0.41515,0.6,Ebbinghaus_0.60000_0.41515.png,B,55.0,1685562.0,0.799,arrowleft,arrowleft,0
S017,Ebbinghaus,-0.41515,1.2,Ebbinghaus_1.20000_-0.41515.png,B,56.0,1687025.0,1.062,arrowright,arrowright,0
S017,Ebbinghaus,0.05,0.9,Ebbinghaus_0.90000_0.05000.png,B,57.0,1689126.0,1.302,arrowright,arrowleft,1
S017,Ebbinghaus,0.41515,1.5,Ebbinghaus_1.50000_0.41515.png,B,58.0,1691086.0,1.278,arrowleft,arrowleft,0
S017,Ebbinghaus,0.14856,-0.9,Ebbinghaus_-0.9000_0.14856.png,B,59.0,1693377.0,0.887,arrowleft,arrowleft,0
S017,Ebbinghaus,0.41515,1.2,Ebbinghaus_1.20000_0.41515.png,B,60.0,1695354.0,1.245,arrowleft,arrowleft,0
S017,Ebbinghaus,0.2687,-0.6,Ebbinghaus_-0.6000_0.26870.png,B,61.0,1697213.0,1.035,arrowleft,arrowleft,0
S017,Ebbinghaus,0.05,0.6,Ebbinghaus_0.60000_0.05000.png,B,62.0,1699246.0,0.747,arrowright,arrowleft,1
S017,Ebbinghaus,0.2687,-0.9,Ebbinghaus_-0.9000_0.26870.png,B,63.0,1701029.0,0.881,arrowleft,arrowleft,0
S017,Ebbinghaus,-0.41515,-0.9,Ebbinghaus_-0.9000_-0.41515.png,B,64.0,1702696.0,0.62,arrowright,arrowright,0
S017,Ebbinghaus,-0.05,-0.9,Ebbinghaus_-0.9000_-0.0500.png,B,65.0,1704148.0,0.735,arrowright,arrowright,0
S017,Ebbinghaus,-0.05,1.5,Ebbinghaus_1.50000_-0.0500.png,B,66.0,1705649.0,1.332,arrowleft,arrowright,1
S017,Ebbinghaus,-0.2687,-0.6,Ebbinghaus_-0.6000_-0.2687.png,B,67.0,1707958.0,0.648,arrowright,arrowright,0
S017,Ebbinghaus,-0.14856,1.2,Ebbinghaus_1.20000_-0.14856.png,B,68.0,1709282.0,0.865,arrowright,arrowright,0
S017,Ebbinghaus,-0.14856,-1.2,Ebbinghaus_-1.2000_-0.14856.png,B,69.0,1710780.0,0.75,arrowright,arrowright,0
S017,Ebbinghaus,0.05,-0.3,Ebbinghaus_-0.3000_0.05000.png,B,70.0,1712393.0,1.455,arrowright,arrowleft,1
S017,Ebbinghaus,-0.05,-0.6,Ebbinghaus_-0.6000_-0.0500.png,B,71.0,1714861.0,0.811,arrowright,arrowright,0
S017,Ebbinghaus,-0.2687,0.9,Ebbinghaus_0.90000_-0.2687.png,B,72.0,1716759.0,0.929,arrowright,arrowright,0
S017,Ebbinghaus,0.41515,-0.9,Ebbinghaus_-0.9000_0.41515.png,B,73.0,1718477.0,0.724,arrowleft,arrowleft,0
S017,Ebbinghaus,0.05,1.2,Ebbinghaus_1.20000_0.05000.png,B,74.0,1719979.0,0.644,arrowright,arrowleft,1
S017,Ebbinghaus,-0.14856,0.3,Ebbinghaus_0.30000_-0.14856.png,B,75.0,1721626.0,0.652,arrowright,arrowright,0
S017,Ebbinghaus,-0.14856,-0.9,Ebbinghaus_-0.9000_-0.14856.png,B,76.0,1723119.0,0.605,arrowright,arrowright,0
S017,Ebbinghaus,-0.2687,-0.9,Ebbinghaus_-0.9000_-0.2687.png,B,77.0,1724478.0,0.532,arrowright,arrowright,0
S017,Ebbinghaus,-0.41515,0.6,Ebbinghaus_0.60000_-0.41515.png,B,78.0,1725863.0,0.492,arrowright,arrowright,0
S017,Ebbinghaus,0.41515,-1.2,Ebbinghaus_-1.2000_0.41515.png,B,79.0,1727341.0,0.712,arrowleft,arrowleft,0
S017,Ebbinghaus,0.2687,0.9,Ebbinghaus_0.90000_0.26870.png,B,80.0,1729040.0,1.5,arrowleft,arrowleft,0
S017,VerticalHorizontal,-0.24909,-45.0,VerticalHorizontal_-45.000_-0.24909.png,B,1.0,1742956.0,1.43,arrowright,arrowright,0
S017,VerticalHorizontal,-0.16122,9.0,VerticalHorizontal_9.00000_-0.16122.png,B,2.0,1745348.0,0.63,arrowright,arrowright,0
S017,VerticalHorizontal,0.16122,-45.0,VerticalHorizontal_-45.000_0.16122.png,B,3.0,1746782.0,0.518,arrowleft,arrowleft,0
S017,VerticalHorizontal,-0.08913,-9.0,VerticalHorizontal_-9.0000_-0.08913.png,B,4.0,1748026.0,0.63,arrowright,arrowright,0
S017,VerticalHorizontal,-0.16122,-27.0,VerticalHorizontal_-27.000_-0.16122.png,B,5.0,1749276.0,0.512,arrowright,arrowright,0
S017,VerticalHorizontal,0.16122,9.0,VerticalHorizontal_9.00000_0.16122.png,B,6.0,1750433.0,0.603,arrowleft,arrowleft,0
S017,VerticalHorizontal,0.03,18.0,VerticalHorizontal_18.0000_0.03000.png,B,7.0,1751653.0,2.748,arrowright,arrowleft,1
S017,VerticalHorizontal,0.03,36.0,VerticalHorizontal_36.0000_0.03000.png,B,8.0,1755469.0,0.924,arrowright,arrowleft,1
S017,VerticalHorizontal,-0.24909,-27.0,VerticalHorizontal_-27.000_-0.24909.png,B,9.0,1757119.0,0.432,arrowright,arrowright,0
S017,VerticalHorizontal,0.08913,-18.0,VerticalHorizontal_-18.000_0.08913.png,B,10.0,1758452.0,0.606,arrowleft,arrowleft,0
S017,VerticalHorizontal,0.03,-45.0,VerticalHorizontal_-45.000_0.03000.png,B,11.0,1760056.0,0.478,arrowleft,arrowleft,0
S017,VerticalHorizontal,-0.16122,-18.0,VerticalHorizontal_-18.000_-0.16122.png,B,12.0,1761444.0,0.451,arrowright,arrowright,0
S017,VerticalHorizontal,-0.03,36.0,VerticalHorizontal_36.0000_-0.0300.png,B,13.0,1762794.0,0.807,arrowleft,arrowright,1
S017,VerticalHorizontal,0.16122,-18.0,VerticalHorizontal_-18.000_0.16122.png,B,14.0,1764328.0,0.537,arrowleft,arrowleft,0
S017,VerticalHorizontal,0.03,-9.0,VerticalHorizontal_-9.0000_0.03000.png,B,15.0,1765630.0,0.751,arrowleft,arrowleft,0
S017,VerticalHorizontal,-0.16122,36.0,VerticalHorizontal_36.0000_-0.16122.png,B,16.0,1767128.0,0.709,arrowright,arrowright,0
S017,VerticalHorizontal,0.08913,45.0,VerticalHorizontal_45.0000_0.08913.png,B,17.0,1768732.0,0.662,arrowleft,arrowleft,0
S017,VerticalHorizontal,-0.03,-9.0,VerticalHorizontal_-9.0000_-0.0300.png,B,18.0,1770127.0,0.711,arrowright,arrowright,0
S017,VerticalHorizontal,-0.08913,-45.0,VerticalHorizontal_-45.000_-0.08913.png,B,19.0,1771580.0,0.524,arrowright,arrowright,0
S017,VerticalHorizontal,-0.16122,-9.0,VerticalHorizontal_-9.0000_-0.16122.png,B,20.0,1772811.0,0.561,arrowright,arrowright,0
S017,VerticalHorizontal,-0.16122,-45.0,VerticalHorizontal_-45.000_-0.16122.png,B,21.0,1774318.0,0.518,arrowright,arrowright,0
S017,VerticalHorizontal,-0.08913,36.0,VerticalHorizontal_36.0000_-0.08913.png,B,22.0,1775703.0,1.369,arrowright,arrowright,0
S017,VerticalHorizontal,0.08913,-27.0,VerticalHorizontal_-27.000_0.08913.png,B,23.0,1778146.0,0.552,arrowleft,arrowleft,0
S017,VerticalHorizontal,0.03,45.0,VerticalHorizontal_45.0000_0.03000.png,B,24.0,1779630.0,1.213,arrowright,arrowleft,1
S017,VerticalHorizontal,0.16122,-27.0,VerticalHorizontal_-27.000_0.16122.png,B,25.0,1781863.0,0.494,arrowleft,arrowleft,0
S017,VerticalHorizontal,-0.16122,27.0,VerticalHorizontal_27.0000_-0.16122.png,B,26.0,1783020.0,0.545,arrowright,arrowright,0
S017,VerticalHorizontal,0.08913,36.0,VerticalHorizontal_36.0000_0.08913.png,B,27.0,1784519.0,1.358,arrowright,arrowleft,1
S017,VerticalHorizontal,0.08913,27.0,VerticalHorizontal_27.0000_0.08913.png,B,28.0,1786944.0,1.575,arrowleft,arrowleft,0
S017,VerticalHorizontal,-0.08913,9.0,VerticalHorizontal_9.00000_-0.08913.png,B,29.0,1789262.0,0.572,arrowright,arrowright,0
S017,VerticalHorizontal,-0.24909,27.0,VerticalHorizontal_27.0000_-0.24909.png,B,30.0,1790668.0,0.435,arrowright,arrowright,0
S017,VerticalHorizontal,0.08913,9.0,VerticalHorizontal_9.00000_0.08913.png,B,31.0,1792071.0,0.579,arrowleft,arrowleft,0
S017,VerticalHorizontal,0.16122,36.0,VerticalHorizontal_36.0000_0.16122.png,B,32.0,1793370.0,0.772,arrowleft,arrowleft,0
S017,VerticalHorizontal,-0.08913,27.0,VerticalHorizontal_27.0000_-0.08913.png,B,33.0,1795178.0,0.564,arrowright,arrowright,0
S017,VerticalHorizontal,-0.24909,9.0,VerticalHorizontal_9.00000_-0.24909.png,B,34.0,1796542.0,0.526,arrowright,arrowright,0
S017,VerticalHorizontal,0.24909,45.0,VerticalHorizontal_45.0000_0.24909.png,B,35.0,1797802.0,0.622,arrowleft,arrowleft,0
S017,VerticalHorizontal,-0.03,27.0,VerticalHorizontal_27.0000_-0.0300.png,B,36.0,1799128.0,1.137,arrowleft,arrowright,1
S017,VerticalHorizontal,0.24909,36.0,VerticalHorizontal_36.0000_0.24909.png,B,37.0,1801245.0,0.649,arrowleft,arrowleft,0
S017,VerticalHorizontal,-0.16122,-36.0,VerticalHorizontal_-36.000_-0.16122.png,B,38.0,1802735.0,0.44,arrowright,arrowright,0
S017,VerticalHorizontal,0.03,-36.0,VerticalHorizontal_-36.000_0.03000.png,B,39.0,1803837.0,0.704,arrowleft,arrowleft,0
S017,VerticalHorizontal,-0.03,45.0,VerticalHorizontal_45.0000_-0.0300.png,B,40.0,1805578.0,0.506,arrowleft,arrowright,1
S017,VerticalHorizontal,-0.03,-18.0,VerticalHorizontal_-18.000_-0.0300.png,B,41.0,1807139.0,0.603,arrowright,arrowright,0
S017,VerticalHorizontal,0.08913,-9.0,VerticalHorizontal_-9.0000_0.08913.png,B,42.0,1808646.0,0.623,arrowleft,arrowleft,0
S017,VerticalHorizontal,0.03,-27.0,VerticalHorizontal_-27.000_0.03000.png,B,43.0,1810352.0,0.651,arrowleft,arrowleft,0
S017,VerticalHorizontal,0.03,9.0,VerticalHorizontal_9.00000_0.03000.png,B,44.0,1812051.0,1.134,arrowright,arrowleft,1
S017,VerticalHorizontal,0.03,-18.0,VerticalHorizontal_-18.000_0.03000.png,B,45.0,1814194.0,0.519,arrowleft,arrowleft,0
S017,VerticalHorizontal,-0.16122,45.0,VerticalHorizontal_45.0000_-0.16122.png,B,46.0,1815321.0,1.065,arrowright,arrowright,0
S017,VerticalHorizontal,0.24909,-36.0,VerticalHorizontal_-36.000_0.24909.png,B,47.0,1817366.0,0.466,arrowleft,arrowleft,0
S017,VerticalHorizontal,0.08913,18.0,VerticalHorizontal_18.0000_0.08913.png,B,48.0,1818740.0,0.609,arrowright,arrowleft,1
S017,VerticalHorizontal,0.16122,27.0,VerticalHorizontal_27.0000_0.16122.png,B,49.0,1820366.0,0.568,arrowleft,arrowleft,0
S017,VerticalHorizontal,-0.24909,45.0,VerticalHorizontal_45.0000_-0.24909.png,B,50.0,1822041.0,0.492,arrowright,arrowright,0
S017,VerticalHorizontal,-0.24909,18.0,VerticalHorizontal_18.0000_-0.24909.png,B,51.0,1823502.0,0.524,arrowright,arrowright,0
S017,VerticalHorizontal,0.16122,-9.0,VerticalHorizontal_-9.0000_0.16122.png,B,52.0,1824781.0,0.569,arrowleft,arrowleft,0
S017,VerticalHorizontal,0.24909,-9.0,VerticalHorizontal_-9.0000_0.24909.png,B,53.0,1826131.0,0.561,arrowleft,arrowleft,0
S017,VerticalHorizontal,0.16122,18.0,VerticalHorizontal_18.0000_0.16122.png,B,54.0,1827325.0,0.64,arrowleft,arrowleft,0
S017,VerticalHorizontal,-0.24909,-18.0,VerticalHorizontal_-18.000_-0.24909.png,B,55.0,1828796.0,0.426,arrowright,arrowright,0
S017,VerticalHorizontal,0.08913,-36.0,VerticalHorizontal_-36.000_0.08913.png,B,56.0,1830071.0,0.466,arrowleft,arrowleft,0
S017,VerticalHorizontal,0.24909,27.0,VerticalHorizontal_27.0000_0.24909.png,B,57.0,1831373.0,0.572,arrowleft,arrowleft,0
S017,VerticalHorizontal,-0.08913,-36.0,VerticalHorizontal_-36.000_-0.08913.png,B,58.0,1832560.0,0.468,arrowright,arrowright,0
S017,VerticalHorizontal,0.24909,18.0,VerticalHorizontal_18.0000_0.24909.png,B,59.0,1833959.0,0.489,arrowleft,arrowleft,0
S017,VerticalHorizontal,-0.08913,18.0,VerticalHorizontal_18.0000_-0.08913.png,B,60.0,1835395.0,0.554,arrowright,arrowright,0
S017,VerticalHorizontal,-0.03,-27.0,VerticalHorizontal_-27.000_-0.0300.png,B,61.0,1836996.0,0.499,arrowright,arrowright,0
S017,VerticalHorizontal,-0.03,-36.0,VerticalHorizontal_-36.000_-0.0300.png,B,62.0,1838271.0,0.529,arrowright,arrowright,0
S017,VerticalHorizontal,0.24909,-45.0,VerticalHorizontal_-45.000_0.24909.png,B,63.0,1839645.0,0.529,arrowleft,arrowleft,0
S017,VerticalHorizontal,-0.08913,-18.0,VerticalHorizontal_-18.000_-0.08913.png,B,64.0,1840881.0,0.385,arrowright,arrowright,0
S017,VerticalHorizontal,0.16122,45.0,VerticalHorizontal_45.0000_0.16122.png,B,65.0,1842368.0,0.769,arrowleft,arrowleft,0
S017,VerticalHorizontal,-0.24909,-36.0,VerticalHorizontal_-36.000_-0.24909.png,B,66.0,1843873.0,0.427,arrowright,arrowright,0
S017,VerticalHorizontal,-0.03,18.0,VerticalHorizontal_18.0000_-0.0300.png,B,67.0,1845259.0,0.445,arrowleft,arrowright,1
S017,VerticalHorizontal,-0.24909,36.0,VerticalHorizontal_36.0000_-0.24909.png,B,68.0,1846323.0,0.475,arrowright,arrowright,0
S017,VerticalHorizontal,0.03,27.0,VerticalHorizontal_27.0000_0.03000.png,B,69.0,1847421.0,1.942,arrowright,arrowleft,1
S017,VerticalHorizontal,-0.24909,-9.0,VerticalHorizontal_-9.0000_-0.24909.png,B,70.0,1850263.0,0.516,arrowright,arrowright,0
S017,VerticalHorizontal,0.24909,-27.0,VerticalHorizontal_-27.000_0.24909.png,B,71.0,1851586.0,0.497,arrowleft,arrowleft,0
S017,VerticalHorizontal,0.08913,-45.0,VerticalHorizontal_-45.000_0.08913.png,B,72.0,1853096.0,0.538,arrowleft,arrowleft,0
S017,VerticalHorizontal,-0.08913,45.0,VerticalHorizontal_45.0000_-0.08913.png,B,73.0,1854704.0,1.813,arrowright,arrowright,0
S017,VerticalHorizontal,-0.03,9.0,VerticalHorizontal_9.00000_-0.0300.png,B,74.0,1857408.0,2.125,arrowright,arrowright,0
S017,VerticalHorizontal,0.24909,9.0,VerticalHorizontal_9.00000_0.24909.png,B,75.0,1860251.0,0.646,arrowleft,arrowleft,0
S017,VerticalHorizontal,-0.08913,-27.0,VerticalHorizontal_-27.000_-0.08913.png,B,76.0,1861771.0,0.481,arrowright,arrowright,0
S017,VerticalHorizontal,-0.16122,18.0,VerticalHorizontal_18.0000_-0.16122.png,B,77.0,1863323.0,0.53,arrowright,arrowright,0
S017,VerticalHorizontal,0.24909,-18.0,VerticalHorizontal_-18.000_0.24909.png,B,78.0,1864486.0,0.544,arrowleft,arrowleft,0
S017,VerticalHorizontal,-0.03,-45.0,VerticalHorizontal_-45.000_-0.0300.png,B,79.0,1865902.0,0.451,arrowright,arrowright,0
S017,VerticalHorizontal,0.16122,-36.0,VerticalHorizontal_-36.000_0.16122.png,B,80.0,1867148.0,0.565,arrowleft,arrowleft,0
S016,MullerLyer,0.08716,27.0,MullerLyer_27.0000_0.08716.png,A,1.0,409890.0,0.647,arrowdown,arrowup,1
S016,MullerLyer,0.30447,15.0,MullerLyer_15.0000_0.30447.png,A,2.0,411457.0,0.65,arrowup,arrowup,0
S016,MullerLyer,-0.18509,27.0,MullerLyer_27.0000_-0.18509.png,A,3.0,413040.0,0.587,arrowup,arrowdown,1
S016,MullerLyer,-0.18509,15.0,MullerLyer_15.0000_-0.18509.png,A,4.0,414457.0,0.591,arrowdown,arrowdown,0
S016,MullerLyer,0.18509,27.0,MullerLyer_27.0000_0.18509.png,A,5.0,415674.0,0.704,arrowdown,arrowup,1
S016,MullerLyer,0.08716,-9.0,MullerLyer_-9.0000_0.08716.png,A,6.0,417477.0,0.701,arrowup,arrowup,0
S016,MullerLyer,0.45,-15.0,MullerLyer_-15.000_0.45000.png,A,7.0,419244.0,0.504,arrowup,arrowup,0
S016,MullerLyer,0.30447,21.0,MullerLyer_21.0000_0.30447.png,A,8.0,420694.0,0.944,arrowdown,arrowup,1
S016,MullerLyer,-0.45,9.0,MullerLyer_9.00000_-0.4500.png,A,9.0,422457.0,0.701,arrowdown,arrowdown,0
S016,MullerLyer,-0.30447,-21.0,MullerLyer_-21.000_-0.30447.png,A,10.0,423843.0,0.695,arrowdown,arrowdown,0
S016,MullerLyer,0.30447,-3.0,MullerLyer_-3.0000_0.30447.png,A,11.0,425630.0,0.568,arrowup,arrowup,0
S016,MullerLyer,-0.30447,-27.0,MullerLyer_-27.000_-0.30447.png,A,12.0,427178.0,0.879,arrowdown,arrowdown,0
S016,MullerLyer,-0.45,-3.0,MullerLyer_-3.0000_-0.4500.png,A,13.0,428712.0,0.585,arrowdown,arrowdown,0
S016,MullerLyer,-0.08716,27.0,MullerLyer_27.0000_-0.08716.png,A,14.0,430044.0,0.623,arrowup,arrowdown,1
S016,MullerLyer,-0.08716,9.0,MullerLyer_9.00000_-0.08716.png,A,15.0,431346.0,1.072,arrowup,arrowdown,1
S016,MullerLyer,0.30447,-9.0,MullerLyer_-9.0000_0.30447.png,A,16.0,433513.0,0.674,arrowup,arrowup,0
S016,MullerLyer,0.45,-3.0,MullerLyer_-3.0000_0.45000.png,A,17.0,435296.0,0.541,arrowup,arrowup,0
S016,MullerLyer,0.45,-27.0,MullerLyer_-27.000_0.45000.png,A,18.0,436681.0,0.506,arrowup,arrowup,0
S016,MullerLyer,0.08716,9.0,MullerLyer_9.00000_0.08716.png,A,19.0,437849.0,0.588,arrowdown,arrowup,1
S016,MullerLyer,0.30447,9.0,MullerLyer_9.00000_0.30447.png,A,20.0,439431.0,0.765,arrowup,arrowup,0
S016,MullerLyer,-0.30447,21.0,MullerLyer_21.0000_-0.30447.png,A,21.0,441212.0,0.785,arrowdown,arrowdown,0
S016,MullerLyer,-0.45,-9.0,MullerLyer_-9.0000_-0.4500.png,A,22.0,442882.0,0.734,arrowdown,arrowdown,0
S016,MullerLyer,0.45,21.0,MullerLyer_21.0000_0.45000.png,A,23.0,444526.0,0.741,arrowup,arrowup,0
S016,MullerLyer,0.45,-9.0,MullerLyer_-9.0000_0.45000.png,A,24.0,446281.0,0.516,arrowup,arrowup,0
S016,MullerLyer,-0.45,21.0,MullerLyer_21.0000_-0.4500.png,A,25.0,447732.0,0.644,arrowdown,arrowdown,0
S016,MullerLyer,-0.18509,-3.0,MullerLyer_-3.0000_-0.18509.png,A,26.0,449398.0,0.628,arrowdown,arrowdown,0
S016,MullerLyer,0.08716,15.0,MullerLyer_15.0000_0.08716.png,A,27.0,451015.0,0.531,arrowdown,arrowup,1
S016,MullerLyer,0.08716,3.0,MullerLyer_3.00000_0.08716.png,A,28.0,452639.0,0.947,arrowup,arrowup,0
S016,MullerLyer,0.18509,-3.0,MullerLyer_-3.0000_0.18509.png,A,29.0,454552.0,0.625,arrowup,arrowup,0
S016,MullerLyer,0.45,15.0,MullerLyer_15.0000_0.45000.png,A,30.0,455800.0,0.646,arrowup,arrowup,0
S016,MullerLyer,0.18509,-9.0,MullerLyer_-9.0000_0.18509.png,A,31.0,457317.0,0.57,arrowup,arrowup,0
S016,MullerLyer,-0.30447,27.0,MullerLyer_27.0000_-0.30447.png,A,32.0,458950.0,1.196,arrowdown,arrowdown,0
S016,MullerLyer,-0.08716,15.0,MullerLyer_15.0000_-0.08716.png,A,33.0,461136.0,1.08,arrowup,arrowdown,1
S016,MullerLyer,0.08716,-15.0,MullerLyer_-15.000_0.08716.png,A,34.0,462917.0,0.529,arrowup,arrowup,0
S016,MullerLyer,0.18509,21.0,MullerLyer_21.0000_0.18509.png,A,35.0,464120.0,0.926,arrowdown,arrowup,1
S016,MullerLyer,-0.30447,15.0,MullerLyer_15.0000_-0.30447.png,A,36.0,465803.0,0.643,arrowdown,arrowdown,0
S016,MullerLyer,0.08716,21.0,MullerLyer_21.0000_0.08716.png,A,37.0,467503.0,0.643,arrowdown,arrowup,1
S016,MullerLyer,-0.08716,-15.0,MullerLyer_-15.000_-0.08716.png,A,38.0,468904.0,0.703,arrowdown,arrowdown,0
S016,MullerLyer,-0.45,27.0,MullerLyer_27.0000_-0.4500.png,A,39.0,470437.0,0.859,arrowdown,arrowdown,0
S016,MullerLyer,-0.45,3.0,MullerLyer_3.00000_-0.4500.png,A,40.0,472122.0,0.534,arrowdown,arrowdown,0
S016,MullerLyer,0.45,27.0,MullerLyer_27.0000_0.45000.png,A,41.0,473354.0,0.602,arrowup,arrowup,0
S016,MullerLyer,-0.45,-21.0,MullerLyer_-21.000_-0.4500.png,A,42.0,474623.0,0.483,arrowdown,arrowdown,0
S016,MullerLyer,0.18509,9.0,MullerLyer_9.00000_0.18509.png,A,43.0,475723.0,0.523,arrowup,arrowup,0
S016,MullerLyer,-0.45,-15.0,MullerLyer_-15.000_-0.4500.png,A,44.0,477106.0,0.491,arrowdown,arrowdown,0
S016,MullerLyer,0.30447,3.0,MullerLyer_3.00000_0.30447.png,A,45.0,478259.0,0.507,arrowup,arrowup,0
S016,MullerLyer,0.18509,15.0,MullerLyer_15.0000_0.18509.png,A,46.0,479555.0,0.871,arrowdown,arrowup,1
S016,MullerLyer,-0.30447,3.0,MullerLyer_3.00000_-0.30447.png,A,47.0,481358.0,0.629,arrowdown,arrowdown,0
S016,MullerLyer,0.18509,-27.0,MullerLyer_-27.000_0.18509.png,A,48.0,482991.0,0.526,arrowup,arrowup,0
S016,MullerLyer,-0.08716,-27.0,MullerLyer_-27.000_-0.08716.png,A,49.0,484583.0,0.512,arrowdown,arrowdown,0
S016,MullerLyer,-0.08716,-9.0,MullerLyer_-9.0000_-0.08716.png,A,50.0,485958.0,0.748,arrowdown,arrowdown,0
S016,MullerLyer,-0.30447,9.0,MullerLyer_9.00000_-0.30447.png,A,51.0,487441.0,0.776,arrowdown,arrowdown,0
S016,MullerLyer,-0.08716,-21.0,MullerLyer_-21.000_-0.08716.png,A,52.0,488908.0,0.648,arrowdown,arrowdown,0
S016,MullerLyer,0.30447,-27.0,MullerLyer_-27.000_0.30447.png,A,53.0,490308.0,0.569,arrowup,arrowup,0
S016,MullerLyer,0.18509,3.0,MullerLyer_3.00000_0.18509.png,A,54.0,491627.0,0.621,arrowup,arrowup,0
S016,MullerLyer,-0.08716,21.0,MullerLyer_21.0000_-0.08716.png,A,55.0,492877.0,0.579,arrowup,arrowdown,1
S016,MullerLyer,-0.18509,-9.0,MullerLyer_-9.0000_-0.18509.png,A,56.0,494498.0,0.558,arrowdown,arrowdown,0
S016,MullerLyer,-0.30447,-3.0,MullerLyer_-3.0000_-0.30447.png,A,57.0,495911.0,0.576,arrowdown,arrowdown,0
S016,MullerLyer,-0.18509,9.0,MullerLyer_9.00000_-0.18509.png,A,58.0,497294.0,0.742,arrowup,arrowdown,1
S016,MullerLyer,0.30447,-21.0,MullerLyer_-21.000_0.30447.png,A,59.0,498893.0,0.642,arrowup,arrowup,0
S016,MullerLyer,-0.45,-27.0,MullerLyer_-27.000_-0.4500.png,A,60.0,500294.0,0.561,arrowdown,arrowdown,0
S016,MullerLyer,-0.18509,21.0,MullerLyer_21.0000_-0.18509.png,A,61.0,501745.0,0.59,arrowup,arrowdown,1
S016,MullerLyer,0.30447,-15.0,MullerLyer_-15.000_0.30447.png,A,62.0,503014.0,0.66,arrowup,arrowup,0
S016,MullerLyer,0.45,-21.0,MullerLyer_-21.000_0.45000.png,A,63.0,504780.0,0.586,arrowup,arrowup,0
S016,MullerLyer,0.08716,-27.0,MullerLyer_-27.000_0.08716.png,A,64.0,506295.0,0.521,arrowup,arrowup,0
S016,MullerLyer,-0.08716,-3.0,MullerLyer_-3.0000_-0.08716.png,A,65.0,507832.0,0.624,arrowdown,arrowdown,0
S016,MullerLyer,0.18509,-15.0,MullerLyer_-15.000_0.18509.png,A,66.0,509565.0,0.551,arrowup,arrowup,0
S016,MullerLyer,0.45,9.0,MullerLyer_9.00000_0.45000.png,A,67.0,510999.0,0.566,arrowup,arrowup,0
S016,MullerLyer,-0.45,15.0,MullerLyer_15.0000_-0.4500.png,A,68.0,512216.0,0.61,arrowdown,arrowdown,0
S016,MullerLyer,-0.18509,3.0,MullerLyer_3.00000_-0.18509.png,A,69.0,513464.0,0.721,arrowdown,arrowdown,0
S016,MullerLyer,-0.30447,-15.0,MullerLyer_-15.000_-0.30447.png,A,70.0,514831.0,0.635,arrowdown,arrowdown,0
S016,MullerLyer,0.08716,-3.0,MullerLyer_-3.0000_0.08716.png,A,71.0,516234.0,0.521,arrowup,arrowup,0
S016,MullerLyer,-0.18509,-15.0,MullerLyer_-15.000_-0.18509.png,A,72.0,517448.0,0.498,arrowdown,arrowdown,0
S016,MullerLyer,-0.08716,3.0,MullerLyer_3.00000_-0.08716.png,A,73.0,518948.0,0.696,arrowdown,arrowdown,0
S016,MullerLyer,0.30447,27.0,MullerLyer_27.0000_0.30447.png,A,74.0,520684.0,1.872,arrowdown,arrowup,1
S016,MullerLyer,0.18509,-21.0,MullerLyer_-21.000_0.18509.png,A,75.0,523240.0,0.556,arrowup,arrowup,0
S016,MullerLyer,0.45,3.0,MullerLyer_3.00000_0.45000.png,A,76.0,524700.0,0.545,arrowup,arrowup,0
S016,MullerLyer,0.08716,-21.0,MullerLyer_-21.000_0.08716.png,A,77.0,526068.0,0.567,arrowup,arrowup,0
S016,MullerLyer,-0.30447,-9.0,MullerLyer_-9.0000_-0.30447.png,A,78.0,527334.0,0.661,arrowdown,arrowdown,0
S016,MullerLyer,-0.18509,-21.0,MullerLyer_-21.000_-0.18509.png,A,79.0,528952.0,0.503,arrowdown,arrowdown,0
S016,MullerLyer,-0.18509,-27.0,MullerLyer_-27.000_-0.18509.png,A,80.0,530169.0,0.547,arrowdown,arrowdown,0
S016,Ebbinghaus,0.20566,0.15,Ebbinghaus_0.15000_0.20566.png,A,1.0,544956.0,0.93,arrowleft,arrowleft,0
S016,Ebbinghaus,-0.20566,0.15,Ebbinghaus_0.15000_-0.20566.png,A,2.0,546643.0,0.523,arrowright,arrowright,0
S016,Ebbinghaus,-0.20566,-1.35,Ebbinghaus_-1.3500_-0.20566.png,A,3.0,548159.0,0.626,arrowright,arrowright,0
S016,Ebbinghaus,0.3383,1.35,Ebbinghaus_1.35000_0.33830.png,A,4.0,549725.0,0.589,arrowleft,arrowleft,0
S016,Ebbinghaus,-0.3383,-1.35,Ebbinghaus_-1.3500_-0.3383.png,A,5.0,551210.0,0.505,arrowright,arrowright,0
S016,Ebbinghaus,0.09684,-1.35,Ebbinghaus_-1.3500_0.09684.png,A,6.0,552793.0,0.482,arrowright,arrowleft,1
S016,Ebbinghaus,-0.09684,1.35,Ebbinghaus_1.35000_-0.09684.png,A,7.0,554109.0,2.746,arrowleft,arrowright,1
S016,Ebbinghaus,-0.09684,0.75,Ebbinghaus_0.75000_-0.09684.png,A,8.0,557609.0,0.905,arrowright,arrowright,0
S016,Ebbinghaus,-0.5,-0.75,Ebbinghaus_-0.7500_-0.5000.png,A,9.0,559494.0,0.65,arrowright,arrowright,0
S016,Ebbinghaus,0.5,-1.05,Ebbinghaus_-1.0500_0.50000.png,A,10.0,561195.0,0.56,arrowleft,arrowleft,0
S016,Ebbinghaus,0.20566,-0.45,Ebbinghaus_-0.4500_0.20566.png,A,11.0,562411.0,0.764,arrowleft,arrowleft,0
S016,Ebbinghaus,-0.20566,1.35,Ebbinghaus_1.35000_-0.20566.png,A,12.0,564011.0,0.594,arrowright,arrowright,0
S016,Ebbinghaus,0.3383,0.75,Ebbinghaus_0.75000_0.33830.png,A,13.0,565562.0,0.941,arrowleft,arrowleft,0
S016,Ebbinghaus,0.20566,0.75,Ebbinghaus_0.75000_0.20566.png,A,14.0,567359.0,0.807,arrowleft,arrowleft,0
S016,Ebbinghaus,0.20566,-0.15,Ebbinghaus_-0.1500_0.20566.png,A,15.0,568946.0,0.608,arrowleft,arrowleft,0
S016,Ebbinghaus,-0.5,-0.45,Ebbinghaus_-0.4500_-0.5000.png,A,16.0,570468.0,0.567,arrowright,arrowright,0
S016,Ebbinghaus,0.3383,-0.15,Ebbinghaus_-0.1500_0.33830.png,A,17.0,571797.0,0.528,arrowleft,arrowleft,0
S016,Ebbinghaus,-0.3383,1.35,Ebbinghaus_1.35000_-0.3383.png,A,18.0,573099.0,0.525,arrowright,arrowright,0
S016,Ebbinghaus,-0.20566,1.05,Ebbinghaus_1.05000_-0.20566.png,A,19.0,574482.0,0.523,arrowright,arrowright,0
S016,Ebbinghaus,0.09684,0.15,Ebbinghaus_0.15000_0.09684.png,A,20.0,575947.0,0.958,arrowright,arrowleft,1
S016,Ebbinghaus,-0.3383,-1.05,Ebbinghaus_-1.0500_-0.3383.png,A,21.0,577549.0,0.606,arrowright,arrowright,0
S016,Ebbinghaus,-0.5,0.45,Ebbinghaus_0.45000_-0.5000.png,A,22.0,579031.0,0.534,arrowright,arrowright,0
S016,Ebbinghaus,0.09684,-0.15,Ebbinghaus_-0.1500_0.09684.png,A,23.0,580559.0,0.888,arrowleft,arrowleft,0
S016,Ebbinghaus,-0.3383,0.15,Ebbinghaus_0.15000_-0.3383.png,A,24.0,582401.0,0.574,arrowright,arrowright,0
S016,Ebbinghaus,-0.5,0.75,Ebbinghaus_0.75000_-0.5000.png,A,25.0,583916.0,0.539,arrowright,arrowright,0
S016,Ebbinghaus,-0.09684,1.05,Ebbinghaus_1.05000_-0.09684.png,A,26.0,585483.0,0.522,arrowright,arrowright,0
S016,Ebbinghaus,0.20566,-1.35,Ebbinghaus_-1.3500_0.20566.png,A,27.0,586871.0,0.604,arrowleft,arrowleft,0
S016,Ebbinghaus,0.20566,-0.75,Ebbinghaus_-0.7500_0.20566.png,A,28.0,588493.0,0.7,arrowleft,arrowleft,0
S016,Ebbinghaus,0.3383,-0.75,Ebbinghaus_-0.7500_0.33830.png,A,29.0,589933.0,0.712,arrowleft,arrowleft,0
S016,Ebbinghaus,0.5,-0.75,Ebbinghaus_-0.7500_0.50000.png,A,30.0,591483.0,0.572,arrowleft,arrowleft,0
S016,Ebbinghaus,0.3383,0.45,Ebbinghaus_0.45000_0.33830.png,A,31.0,593065.0,0.869,arrowleft,arrowleft,0
S016,Ebbinghaus,-0.09684,0.15,Ebbinghaus_0.15000_-0.09684.png,A,32.0,594751.0,0.554,arrowright,arrowright,0
S016,Ebbinghaus,-0.5,1.05,Ebbinghaus_1.05000_-0.5000.png,A,33.0,596271.0,0.534,arrowright,arrowright,0
S016,Ebbinghaus,0.5,-1.35,Ebbinghaus_-1.3500_0.50000.png,A,34.0,597553.0,0.55,arrowleft,arrowleft,0
S016,Ebbinghaus,0.5,-0.15,Ebbinghaus_-0.1500_0.50000.png,A,35.0,599203.0,0.58,arrowleft,arrowleft,0
S016,Ebbinghaus,0.3383,-0.45,Ebbinghaus_-0.4500_0.33830.png,A,36.0,600887.0,0.557,arrowleft,arrowleft,0
S016,Ebbinghaus,0.09684,0.45,Ebbinghaus_0.45000_0.09684.png,A,37.0,602521.0,0.573,arrowright,arrowleft,1
S016,Ebbinghaus,-0.20566,-0.75,Ebbinghaus_-0.7500_-0.20566.png,A,38.0,604123.0,0.58,arrowright,arrowright,0
S016,Ebbinghaus,0.09684,1.35,Ebbinghaus_1.35000_0.09684.png,A,39.0,605705.0,0.538,arrowright,arrowleft,1
S016,Ebbinghaus,0.09684,-0.75,Ebbinghaus_-0.7500_0.09684.png,A,40.0,607073.0,0.56,arrowright,arrowleft,1
S016,Ebbinghaus,-0.09684,-0.45,Ebbinghaus_-0.4500_-0.09684.png,A,41.0,608407.0,0.587,arrowright,arrowright,0
S016,Ebbinghaus,-0.5,1.35,Ebbinghaus_1.35000_-0.5000.png,A,42.0,609957.0,0.547,arrowright,arrowright,0
S016,Ebbinghaus,0.5,0.45,Ebbinghaus_0.45000_0.50000.png,A,43.0,611491.0,0.463,arrowleft,arrowleft,0
S016,Ebbinghaus,0.3383,-1.35,Ebbinghaus_-1.3500_0.33830.png,A,44.0,612741.0,0.683,arrowleft,arrowleft,0
S016,Ebbinghaus,0.20566,-1.05,Ebbinghaus_-1.0500_0.20566.png,A,45.0,614174.0,0.609,arrowleft,arrowleft,0
S016,Ebbinghaus,-0.5,-1.35,Ebbinghaus_-1.3500_-0.5000.png,A,46.0,615875.0,0.557,arrowright,arrowright,0
S016,Ebbinghaus,-0.20566,0.75,Ebbinghaus_0.75000_-0.20566.png,A,47.0,617125.0,0.738,arrowright,arrowright,0
S016,Ebbinghaus,-0.20566,-1.05,Ebbinghaus_-1.0500_-0.20566.png,A,48.0,618774.0,0.591,arrowright,arrowright,0
S016,Ebbinghaus,0.09684,-1.05,Ebbinghaus_-1.0500_0.09684.png,A,49.0,620108.0,0.665,arrowleft,arrowleft,0
S016,Ebbinghaus,-0.3383,-0.75,Ebbinghaus_-0.7500_-0.3383.png,A,50.0,621442.0,0.652,arrowright,arrowright,0
S016,Ebbinghaus,-0.20566,0.45,Ebbinghaus_0.45000_-0.20566.png,A,51.0,623175.0,0.589,arrowright,arrowright,0
S016,Ebbinghaus,0.09684,-0.45,Ebbinghaus_-0.4500_0.09684.png,A,52.0,624544.0,0.919,arrowleft,arrowleft,0
S016,Ebbinghaus,-0.5,-1.05,Ebbinghaus_-1.0500_-0.5000.png,A,53.0,626510.0,0.543,arrowright,arrowright,0
S016,Ebbinghaus,-0.3383,0.75,Ebbinghaus_0.75000_-0.3383.png,A,54.0,627811.0,0.603,arrowright,arrowright,0
S016,Ebbinghaus,0.3383,1.05,Ebbinghaus_1.05000_0.33830.png,A,55.0,629513.0,0.52,arrowleft,arrowleft,0
S016,Ebbinghaus,0.5,0.15,Ebbinghaus_0.15000_0.50000.png,A,56.0,630810.0,0.513,arrowleft,arrowleft,0
S016,Ebbinghaus,-0.3383,-0.15,Ebbinghaus_-0.1500_-0.3383.png,A,57.0,632112.0,0.492,arrowright,arrowright,0
S016,Ebbinghaus,0.20566,1.05,Ebbinghaus_1.05000_0.20566.png,A,58.0,633678.0,0.557,arrowleft,arrowleft,0
S016,Ebbinghaus,-0.3383,-0.45,Ebbinghaus_-0.4500_-0.3383.png,A,59.0,635313.0,0.649,arrowright,arrowright,0
S016,Ebbinghaus,-0.09684,-0.75,Ebbinghaus_-0.7500_-0.09684.png,A,60.0,636763.0,0.6,arrowright,arrowright,0
S016,Ebbinghaus,0.5,1.35,Ebbinghaus_1.35000_0.50000.png,A,61.0,638233.0,0.5,arrowleft,arrowleft,0
S016,Ebbinghaus,-0.20566,-0.15,Ebbinghaus_-0.1500_-0.20566.png,A,62.0,639413.0,0.631,arrowright,arrowright,0
S016,Ebbinghaus,-0.5,-0.15,Ebbinghaus_-0.1500_-0.5000.png,A,63.0,641048.0,0.515,arrowright,arrowright,0
S016,Ebbinghaus,-0.09684,0.45,Ebbinghaus_0.45000_-0.09684.png,A,64.0,642264.0,0.529,arrowright,arrowright,0
S016,Ebbinghaus,0.09684,0.75,Ebbinghaus_0.75000_0.09684.png,A,65.0,643665.0,1.549,arrowleft,arrowleft,0
S016,Ebbinghaus,-0.5,0.15,Ebbinghaus_0.15000_-0.5000.png,A,66.0,645979.0,0.565,arrowright,arrowright,0
S016,Ebbinghaus,-0.09684,-0.15,Ebbinghaus_-0.1500_-0.09684.png,A,67.0,647450.0,0.543,arrowright,arrowright,0
S016,Ebbinghaus,0.5,-0.45,Ebbinghaus_-0.4500_0.50000.png,A,68.0,648816.0,0.547,arrowleft,arrowleft,0
S016,Ebbinghaus,0.20566,0.45,Ebbinghaus_0.45000_0.20566.png,A,69.0,650133.0,0.56,arrowright,arrowleft,1
S016,Ebbinghaus,0.3383,-1.05,Ebbinghaus_-1.0500_0.33830.png,A,70.0,651648.0,0.584,arrowleft,arrowleft,0
S016,Ebbinghaus,0.20566,1.35,Ebbinghaus_1.35000_0.20566.png,A,71.0,652984.0,0.688,arrowright,arrowleft,1
S016,Ebbinghaus,0.5,1.05,Ebbinghaus_1.05000_0.50000.png,A,72.0,654453.0,0.539,arrowleft,arrowleft,0
S016,Ebbinghaus,0.3383,0.15,Ebbinghaus_0.15000_0.33830.png,A,73.0,655918.0,0.595,arrowleft,arrowleft,0
S016,Ebbinghaus,0.5,0.75,Ebbinghaus_0.75000_0.50000.png,A,74.0,657400.0,0.773,arrowleft,arrowleft,0
S016,Ebbinghaus,0.09684,1.05,Ebbinghaus_1.05000_0.09684.png,A,75.0,658802.0,0.681,arrowright,arrowleft,1
S016,Ebbinghaus,-0.3383,1.05,Ebbinghaus_1.05000_-0.3383.png,A,76.0,660200.0,0.562,arrowright,arrowright,0
S016,Ebbinghaus,-0.09684,-1.35,Ebbinghaus_-1.3500_-0.09684.png,A,77.0,661733.0,0.539,arrowright,arrowright,0
S016,Ebbinghaus,-0.20566,-0.45,Ebbinghaus_-0.4500_-0.20566.png,A,78.0,663104.0,0.629,arrowright,arrowright,0
S016,Ebbinghaus,-0.3383,0.45,Ebbinghaus_0.45000_-0.3383.png,A,79.0,664754.0,0.559,arrowright,arrowright,0
S016,Ebbinghaus,-0.09684,-1.05,Ebbinghaus_-1.0500_-0.09684.png,A,80.0,666320.0,0.633,arrowright,arrowright,0
S016,VerticalHorizontal,-0.3,13.5,VerticalHorizontal_13.5000_-0.3000.png,A,1.0,1285213.0,0.549,arrowright,arrowright,0
S016,VerticalHorizontal,0.0581,-22.5,VerticalHorizontal_-22.500_0.05810.png,A,2.0,1286395.0,0.496,arrowleft,arrowleft,0
S016,VerticalHorizontal,0.20298,40.5,VerticalHorizontal_40.5000_0.20298.png,A,3.0,1287929.0,1.012,arrowleft,arrowleft,0
S016,VerticalHorizontal,0.0581,-4.5,VerticalHorizontal_-4.5000_0.05810.png,A,4.0,1290000.0,0.612,arrowleft,arrowleft,0
S016,VerticalHorizontal,-0.0581,-40.5,VerticalHorizontal_-40.500_-0.0581.png,A,5.0,1291248.0,0.474,arrowright,arrowright,0
S016,VerticalHorizontal,-0.20298,22.5,VerticalHorizontal_22.5000_-0.20298.png,A,6.0,1292734.0,0.507,arrowright,arrowright,0
S016,VerticalHorizontal,0.20298,-4.5,VerticalHorizontal_-4.5000_0.20298.png,A,7.0,1293898.0,0.573,arrowleft,arrowleft,0
S016,VerticalHorizontal,-0.12339,-4.5,VerticalHorizontal_-4.5000_-0.12339.png,A,8.0,1295448.0,0.464,arrowright,arrowright,0
S016,VerticalHorizontal,0.3,-40.5,VerticalHorizontal_-40.500_0.30000.png,A,9.0,1296832.0,0.42,arrowleft,arrowleft,0
S016,VerticalHorizontal,0.3,22.5,VerticalHorizontal_22.5000_0.30000.png,A,10.0,1298083.0,0.679,arrowleft,arrowleft,0
S016,VerticalHorizontal,0.20298,-22.5,VerticalHorizontal_-22.500_0.20298.png,A,11.0,1299550.0,0.482,arrowleft,arrowleft,0
S016,VerticalHorizontal,-0.20298,-4.5,VerticalHorizontal_-4.5000_-0.20298.png,A,12.0,1300899.0,0.503,arrowright,arrowright,0
S016,VerticalHorizontal,0.12339,-4.5,VerticalHorizontal_-4.5000_0.12339.png,A,13.0,1302432.0,0.659,arrowleft,arrowleft,0
S016,VerticalHorizontal,0.12339,-13.5,VerticalHorizontal_-13.500_0.12339.png,A,14.0,1303769.0,0.472,arrowleft,arrowleft,0
S016,VerticalHorizontal,-0.20298,-13.5,VerticalHorizontal_-13.500_-0.20298.png,A,15.0,1305301.0,0.461,arrowright,arrowright,0
S016,VerticalHorizontal,0.3,31.5,VerticalHorizontal_31.5000_0.30000.png,A,16.0,1306386.0,0.796,arrowleft,arrowleft,0
S016,VerticalHorizontal,0.12339,13.5,VerticalHorizontal_13.5000_0.12339.png,A,17.0,1308103.0,1.008,arrowleft,arrowleft,0
S016,VerticalHorizontal,0.0581,-13.5,VerticalHorizontal_-13.500_0.05810.png,A,18.0,1309935.0,0.646,arrowleft,arrowleft,0
S016,VerticalHorizontal,-0.3,40.5,VerticalHorizontal_40.5000_-0.3000.png,A,19.0,1311571.0,0.571,arrowright,arrowright,0
S016,VerticalHorizontal,0.12339,31.5,VerticalHorizontal_31.5000_0.12339.png,A,20.0,1313070.0,0.552,arrowright,arrowleft,1
S016,VerticalHorizontal,0.0581,13.5,VerticalHorizontal_13.5000_0.05810.png,A,21.0,1314690.0,1.712,arrowright,arrowleft,1
S016,VerticalHorizontal,-0.3,31.5,VerticalHorizontal_31.5000_-0.3000.png,A,22.0,1317336.0,1.134,arrowright,arrowright,0
S016,VerticalHorizontal,0.20298,-40.5,VerticalHorizontal_-40.500_0.20298.png,A,23.0,1319303.0,0.518,arrowleft,arrowleft,0
S016,VerticalHorizontal,-0.3,4.5,VerticalHorizontal_4.50000_-0.3000.png,A,24.0,1320888.0,0.554,arrowright,arrowright,0
S016,VerticalHorizontal,0.3,13.5,VerticalHorizontal_13.5000_0.30000.png,A,25.0,1322306.0,0.565,arrowleft,arrowleft,0
S016,VerticalHorizontal,0.20298,4.5,VerticalHorizontal_4.50000_0.20298.png,A,26.0,1323540.0,0.532,arrowleft,arrowleft,0
S016,VerticalHorizontal,-0.12339,-31.5,VerticalHorizontal_-31.500_-0.12339.png,A,27.0,1324874.0,0.468,arrowright,arrowright,0
S016,VerticalHorizontal,0.3,4.5,VerticalHorizontal_4.50000_0.30000.png,A,28.0,1326423.0,0.619,arrowleft,arrowleft,0
S016,VerticalHorizontal,-0.0581,13.5,VerticalHorizontal_13.5000_-0.0581.png,A,29.0,1327890.0,0.582,arrowright,arrowright,0
S016,VerticalHorizontal,-0.0581,-22.5,VerticalHorizontal_-22.500_-0.0581.png,A,30.0,1329474.0,0.557,arrowright,arrowright,0
S016,VerticalHorizontal,0.0581,4.5,VerticalHorizontal_4.50000_0.05810.png,A,31.0,1330674.0,0.997,arrowleft,arrowleft,0
S016,VerticalHorizontal,0.12339,-22.5,VerticalHorizontal_-22.500_0.12339.png,A,32.0,1332760.0,0.552,arrowleft,arrowleft,0
S016,VerticalHorizontal,-0.12339,13.5,VerticalHorizontal_13.5000_-0.12339.png,A,33.0,1334009.0,1.172,arrowright,arrowright,0
S016,VerticalHorizontal,-0.3,-22.5,VerticalHorizontal_-22.500_-0.3000.png,A,34.0,1335910.0,0.531,arrowright,arrowright,0
S016,VerticalHorizontal,0.3,-13.5,VerticalHorizontal_-13.500_0.30000.png,A,35.0,1337461.0,0.519,arrowleft,arrowleft,0
S016,VerticalHorizontal,-0.12339,4.5,VerticalHorizontal_4.50000_-0.12339.png,A,36.0,1338754.0,0.536,arrowright,arrowright,0
S016,VerticalHorizontal,0.20298,-31.5,VerticalHorizontal_-31.500_0.20298.png,A,37.0,1340244.0,0.447,arrowleft,arrowleft,0
S016,VerticalHorizontal,0.20298,-13.5,VerticalHorizontal_-13.500_0.20298.png,A,38.0,1341362.0,0.609,arrowleft,arrowleft,0
S016,VerticalHorizontal,0.20298,31.5,VerticalHorizontal_31.5000_0.20298.png,A,39.0,1342978.0,0.793,arrowleft,arrowleft,0
S016,VerticalHorizontal,0.12339,22.5,VerticalHorizontal_22.5000_0.12339.png,A,40.0,1344860.0,0.801,arrowleft,arrowleft,0
S016,VerticalHorizontal,-0.3,-31.5,VerticalHorizontal_-31.500_-0.3000.png,A,41.0,1346677.0,0.584,arrowright,arrowright,0
S016,VerticalHorizontal,-0.12339,31.5,VerticalHorizontal_31.5000_-0.12339.png,A,42.0,1348112.0,1.068,arrowleft,arrowright,1
S016,VerticalHorizontal,0.12339,40.5,VerticalHorizontal_40.5000_0.12339.png,A,43.0,1350112.0,0.828,arrowleft,arrowleft,0
S016,VerticalHorizontal,0.0581,40.5,VerticalHorizontal_40.5000_0.05810.png,A,44.0,1351778.0,0.532,arrowright,arrowleft,1
S016,VerticalHorizontal,0.0581,-31.5,VerticalHorizontal_-31.500_0.05810.png,A,45.0,1353264.0,0.437,arrowleft,arrowleft,0
S016,VerticalHorizontal,-0.20298,31.5,VerticalHorizontal_31.5000_-0.20298.png,A,46.0,1354746.0,0.435,arrowleft,arrowright,1
S016,VerticalHorizontal,-0.20298,13.5,VerticalHorizontal_13.5000_-0.20298.png,A,47.0,1355800.0,0.57,arrowright,arrowright,0
S016,VerticalHorizontal,-0.0581,31.5,VerticalHorizontal_31.5000_-0.0581.png,A,48.0,1357115.0,0.445,arrowleft,arrowright,1
S016,VerticalHorizontal,0.0581,-40.5,VerticalHorizontal_-40.500_0.05810.png,A,49.0,1358364.0,0.466,arrowleft,arrowleft,0
S016,VerticalHorizontal,-0.3,-13.5,VerticalHorizontal_-13.500_-0.3000.png,A,50.0,1359583.0,0.468,arrowright,arrowright,0
S016,VerticalHorizontal,-0.3,-40.5,VerticalHorizontal_-40.500_-0.3000.png,A,51.0,1360782.0,0.478,arrowright,arrowright,0
S016,VerticalHorizontal,-0.12339,-22.5,VerticalHorizontal_-22.500_-0.12339.png,A,52.0,1361997.0,0.905,arrowright,arrowright,0
S016,VerticalHorizontal,-0.0581,40.5,VerticalHorizontal_40.5000_-0.0581.png,A,53.0,1363764.0,0.476,arrowleft,arrowright,1
S016,VerticalHorizontal,0.0581,22.5,VerticalHorizontal_22.5000_0.05810.png,A,54.0,1365197.0,1.414,arrowleft,arrowleft,0
S016,VerticalHorizontal,-0.20298,-40.5,VerticalHorizontal_-40.500_-0.20298.png,A,55.0,1367677.0,0.543,arrowright,arrowright,0
S016,VerticalHorizontal,-0.3,22.5,VerticalHorizontal_22.5000_-0.3000.png,A,56.0,1368965.0,0.675,arrowright,arrowright,0
S016,VerticalHorizontal,0.20298,22.5,VerticalHorizontal_22.5000_0.20298.png,A,57.0,1370416.0,0.714,arrowleft,arrowleft,0
S016,VerticalHorizontal,-0.0581,4.5,VerticalHorizontal_4.50000_-0.0581.png,A,58.0,1371868.0,1.103,arrowright,arrowright,0
S016,VerticalHorizontal,-0.0581,-13.5,VerticalHorizontal_-13.500_-0.0581.png,A,59.0,1374002.0,0.528,arrowright,arrowright,0
S016,VerticalHorizontal,-0.20298,-22.5,VerticalHorizontal_-22.500_-0.20298.png,A,60.0,1375250.0,0.52,arrowright,arrowright,0
S016,VerticalHorizontal,-0.20298,4.5,VerticalHorizontal_4.50000_-0.20298.png,A,61.0,1376450.0,0.59,arrowright,arrowright,0
S016,VerticalHorizontal,-0.0581,22.5,VerticalHorizontal_22.5000_-0.0581.png,A,62.0,1377919.0,0.622,arrowleft,arrowright,1
S016,VerticalHorizontal,-0.20298,-31.5,VerticalHorizontal_-31.500_-0.20298.png,A,63.0,1379485.0,0.445,arrowright,arrowright,0
S016,VerticalHorizontal,0.12339,4.5,VerticalHorizontal_4.50000_0.12339.png,A,64.0,1380871.0,0.71,arrowleft,arrowleft,0
S016,VerticalHorizontal,0.3,-4.5,VerticalHorizontal_-4.5000_0.30000.png,A,65.0,1382319.0,0.474,arrowleft,arrowleft,0
S016,VerticalHorizontal,-0.0581,-31.5,VerticalHorizontal_-31.500_-0.0581.png,A,66.0,1383921.0,0.489,arrowright,arrowright,0
S016,VerticalHorizontal,0.12339,-40.5,VerticalHorizontal_-40.500_0.12339.png,A,67.0,1385405.0,0.424,arrowleft,arrowleft,0
S016,VerticalHorizontal,-0.12339,22.5,VerticalHorizontal_22.5000_-0.12339.png,A,68.0,1386554.0,1.095,arrowright,arrowright,0
S016,VerticalHorizontal,-0.12339,-40.5,VerticalHorizontal_-40.500_-0.12339.png,A,69.0,1388606.0,0.494,arrowright,arrowright,0
S016,VerticalHorizontal,-0.12339,-13.5,VerticalHorizontal_-13.500_-0.12339.png,A,70.0,1389788.0,0.511,arrowright,arrowright,0
S016,VerticalHorizontal,-0.0581,-4.5,VerticalHorizontal_-4.5000_-0.0581.png,A,71.0,1391340.0,0.74,arrowright,arrowright,0
S016,VerticalHorizontal,-0.12339,40.5,VerticalHorizontal_40.5000_-0.12339.png,A,72.0,1392841.0,0.846,arrowleft,arrowright,1
S016,VerticalHorizontal,0.3,-22.5,VerticalHorizontal_-22.500_0.30000.png,A,73.0,1394490.0,0.56,arrowleft,arrowleft,0
S016,VerticalHorizontal,0.0581,31.5,VerticalHorizontal_31.5000_0.05810.png,A,74.0,1396124.0,0.475,arrowright,arrowleft,1
S016,VerticalHorizontal,-0.3,-4.5,VerticalHorizontal_-4.5000_-0.3000.png,A,75.0,1397358.0,1.44,arrowright,arrowright,0
S016,VerticalHorizontal,0.3,40.5,VerticalHorizontal_40.5000_0.30000.png,A,76.0,1399627.0,0.652,arrowleft,arrowleft,0
S016,VerticalHorizontal,0.20298,13.5,VerticalHorizontal_13.5000_0.20298.png,A,77.0,1400993.0,0.696,arrowleft,arrowleft,0
S016,VerticalHorizontal,-0.20298,40.5,VerticalHorizontal_40.5000_-0.20298.png,A,78.0,1402580.0,0.82,arrowright,arrowright,0
S016,VerticalHorizontal,0.3,-31.5,VerticalHorizontal_-31.500_0.30000.png,A,79.0,1404475.0,0.535,arrowleft,arrowleft,0
S016,VerticalHorizontal,0.12339,-31.5,VerticalHorizontal_-31.500_0.12339.png,A,80.0,1405710.0,0.63,arrowleft,arrowleft,0
S016,MullerLyer,-0.1337,24.0,MullerLyer_24.0000_-0.1337.png,B,1.0,1506567.0,0.686,arrowup,arrowdown,1
S016,MullerLyer,-0.1337,-12.0,MullerLyer_-12.000_-0.1337.png,B,2.0,1508034.0,0.57,arrowdown,arrowdown,0
S016,MullerLyer,-0.37364,-12.0,MullerLyer_-12.000_-0.37364.png,B,3.0,1509485.0,0.548,arrowdown,arrowdown,0
S016,MullerLyer,-0.24183,-30.0,MullerLyer_-30.000_-0.24183.png,B,4.0,1511053.0,0.58,arrowdown,arrowdown,0
S016,MullerLyer,-0.37364,-24.0,MullerLyer_-24.000_-0.37364.png,B,5.0,1512286.0,0.818,arrowdown,arrowdown,0
S016,MullerLyer,-0.37364,30.0,MullerLyer_30.0000_-0.37364.png,B,6.0,1513946.0,0.938,arrowup,arrowdown,1
S016,MullerLyer,0.24183,-24.0,MullerLyer_-24.000_0.24183.png,B,7.0,1515569.0,0.645,arrowup,arrowup,0
S016,MullerLyer,-0.24183,12.0,MullerLyer_12.0000_-0.24183.png,B,8.0,1517004.0,0.9,arrowdown,arrowdown,0
S016,MullerLyer,0.045,6.0,MullerLyer_6.00000_0.04500.png,B,9.0,1518918.0,1.385,arrowup,arrowup,0
S016,MullerLyer,-0.24183,30.0,MullerLyer_30.0000_-0.24183.png,B,10.0,1521372.0,1.565,arrowup,arrowdown,1
S016,MullerLyer,0.045,24.0,MullerLyer_24.0000_0.04500.png,B,11.0,1523755.0,0.639,arrowdown,arrowup,1
S016,MullerLyer,-0.24183,24.0,MullerLyer_24.0000_-0.24183.png,B,12.0,1525073.0,0.941,arrowup,arrowdown,1
S016,MullerLyer,0.24183,24.0,MullerLyer_24.0000_0.24183.png,B,13.0,1526624.0,0.879,arrowup,arrowup,0
S016,MullerLyer,0.24183,-18.0,MullerLyer_-18.000_0.24183.png,B,14.0,1528122.0,0.591,arrowup,arrowup,0
S016,MullerLyer,-0.045,-18.0,MullerLyer_-18.000_-0.0450.png,B,15.0,1529758.0,0.715,arrowdown,arrowdown,0
S016,MullerLyer,0.37364,6.0,MullerLyer_6.00000_0.37364.png,B,16.0,1531457.0,0.765,arrowup,arrowup,0
S016,MullerLyer,0.24183,6.0,MullerLyer_6.00000_0.24183.png,B,17.0,1532958.0,0.605,arrowup,arrowup,0
S016,MullerLyer,0.37364,30.0,MullerLyer_30.0000_0.37364.png,B,18.0,1534526.0,0.598,arrowdown,arrowup,1
S016,MullerLyer,0.37364,-12.0,MullerLyer_-12.000_0.37364.png,B,19.0,1535940.0,0.522,arrowup,arrowup,0
S016,MullerLyer,-0.37364,6.0,MullerLyer_6.00000_-0.37364.png,B,20.0,1537369.0,0.763,arrowdown,arrowdown,0
S016,MullerLyer,-0.045,12.0,MullerLyer_12.0000_-0.0450.png,B,21.0,1538807.0,0.946,arrowup,arrowdown,1
S016,MullerLyer,0.24183,-6.0,MullerLyer_-6.0000_0.24183.png,B,22.0,1540593.0,0.539,arrowup,arrowup,0
S016,MullerLyer,-0.24183,6.0,MullerLyer_6.00000_-0.24183.png,B,23.0,1542110.0,0.732,arrowdown,arrowdown,0
S016,MullerLyer,-0.045,30.0,MullerLyer_30.0000_-0.0450.png,B,24.0,1543601.0,0.621,arrowup,arrowdown,1
S016,MullerLyer,0.1337,24.0,MullerLyer_24.0000_0.13370.png,B,25.0,1544909.0,1.099,arrowdown,arrowup,1
S016,MullerLyer,0.045,-6.0,MullerLyer_-6.0000_0.04500.png,B,26.0,1546677.0,0.765,arrowup,arrowup,0
S016,MullerLyer,0.24183,-12.0,MullerLyer_-12.000_0.24183.png,B,27.0,1548444.0,0.698,arrowup,arrowup,0
S016,MullerLyer,-0.045,6.0,MullerLyer_6.00000_-0.0450.png,B,28.0,1549995.0,1.317,arrowup,arrowdown,1
S016,MullerLyer,-0.37364,12.0,MullerLyer_12.0000_-0.37364.png,B,29.0,1552163.0,0.84,arrowdown,arrowdown,0
S016,MullerLyer,-0.1337,-6.0,MullerLyer_-6.0000_-0.1337.png,B,30.0,1553847.0,0.536,arrowdown,arrowdown,0
S016,MullerLyer,-0.37364,-18.0,MullerLyer_-18.000_-0.37364.png,B,31.0,1555164.0,0.568,arrowdown,arrowdown,0
S016,MullerLyer,-0.24183,-6.0,MullerLyer_-6.0000_-0.24183.png,B,32.0,1556547.0,0.505,arrowdown,arrowdown,0
S016,MullerLyer,0.37364,-24.0,MullerLyer_-24.000_0.37364.png,B,33.0,1557747.0,0.656,arrowup,arrowup,0
S016,MullerLyer,0.24183,30.0,MullerLyer_30.0000_0.24183.png,B,34.0,1559265.0,0.847,arrowdown,arrowup,1
S016,MullerLyer,0.37364,-30.0,MullerLyer_-30.000_0.37364.png,B,35.0,1560781.0,0.601,arrowup,arrowup,0
S016,MullerLyer,0.045,-18.0,MullerLyer_-18.000_0.04500.png,B,36.0,1562115.0,0.637,arrowup,arrowup,0
S016,MullerLyer,0.045,-24.0,MullerLyer_-24.000_0.04500.png,B,37.0,1563565.0,0.628,arrowup,arrowup,0
S016,MullerLyer,-0.1337,18.0,MullerLyer_18.0000_-0.1337.png,B,38.0,1565132.0,1.051,arrowup,arrowdown,1
S016,MullerLyer,0.24183,18.0,MullerLyer_18.0000_0.24183.png,B,39.0,1567149.0,3.204,arrowup,arrowup,0
S016,MullerLyer,0.1337,-18.0,MullerLyer_-18.000_0.13370.png,B,40.0,1571401.0,0.721,arrowup,arrowup,0
S016,MullerLyer,-0.37364,-6.0,MullerLyer_-6.0000_-0.37364.png,B,41.0,1573050.0,0.752,arrowdown,arrowdown,0
S016,MullerLyer,0.045,30.0,MullerLyer_30.0000_0.04500.png,B,42.0,1574585.0,0.498,arrowdown,arrowup,1
S016,MullerLyer,-0.37364,18.0,MullerLyer_18.0000_-0.37364.png,B,43.0,1575933.0,0.839,arrowdown,arrowdown,0
S016,MullerLyer,0.37364,24.0,MullerLyer_24.0000_0.37364.png,B,44.0,1577703.0,0.699,arrowup,arrowup,0
S016,MullerLyer,0.1337,-30.0,MullerLyer_-30.000_0.13370.png,B,45.0,1579445.0,0.628,arrowup,arrowup,0
S016,MullerLyer,0.1337,12.0,MullerLyer_12.0000_0.13370.png,B,46.0,1580885.0,0.997,arrowup,arrowup,0
S016,MullerLyer,-0.24183,-12.0,MullerLyer_-12.000_-0.24183.png,B,47.0,1582686.0,0.516,arrowdown,arrowdown,0
S016,MullerLyer,0.37364,-6.0,MullerLyer_-6.0000_0.37364.png,B,48.0,1583869.0,0.633,arrowup,arrowup,0
S016,MullerLyer,0.37364,12.0,MullerLyer_12.0000_0.37364.png,B,49.0,1585147.0,0.645,arrowup,arrowup,0
S016,MullerLyer,-0.37364,-30.0,MullerLyer_-30.000_-0.37364.png,B,50.0,1586537.0,0.584,arrowdown,arrowdown,0
S016,MullerLyer,-0.24183,18.0,MullerLyer_18.0000_-0.24183.png,B,51.0,1588205.0,0.787,arrowup,arrowdown,1
S016,MullerLyer,-0.24183,-24.0,MullerLyer_-24.000_-0.24183.png,B,52.0,1589623.0,0.587,arrowdown,arrowdown,0
S016,MullerLyer,-0.1337,6.0,MullerLyer_6.00000_-0.1337.png,B,53.0,1591141.0,0.741,arrowup,arrowdown,1
S016,MullerLyer,-0.24183,-18.0,MullerLyer_-18.000_-0.24183.png,B,54.0,1592923.0,0.53,arrowdown,arrowdown,0
S016,MullerLyer,0.1337,30.0,MullerLyer_30.0000_0.13370.png,B,55.0,1594106.0,0.485,arrowdown,arrowup,1
S016,MullerLyer,0.045,18.0,MullerLyer_18.0000_0.04500.png,B,56.0,1595340.0,0.872,arrowdown,arrowup,1
S016,MullerLyer,0.1337,18.0,MullerLyer_18.0000_0.13370.png,B,57.0,1597174.0,0.918,arrowdown,arrowup,1
S016,MullerLyer,0.045,-12.0,MullerLyer_-12.000_0.04500.png,B,58.0,1598790.0,0.611,arrowup,arrowup,0
S016,MullerLyer,0.24183,-30.0,MullerLyer_-30.000_0.24183.png,B,59.0,1600091.0,0.781,arrowup,arrowup,0
S016,MullerLyer,-0.1337,12.0,MullerLyer_12.0000_-0.1337.png,B,60.0,1601875.0,2.417,arrowup,arrowdown,1
S016,MullerLyer,-0.045,24.0,MullerLyer_24.0000_-0.0450.png,B,61.0,1605175.0,0.816,arrowup,arrowdown,1
S016,MullerLyer,-0.045,-6.0,MullerLyer_-6.0000_-0.0450.png,B,62.0,1606809.0,0.953,arrowdown,arrowdown,0
S016,MullerLyer,0.1337,-24.0,MullerLyer_-24.000_0.13370.png,B,63.0,1608426.0,0.656,arrowup,arrowup,0
S016,MullerLyer,-0.045,18.0,MullerLyer_18.0000_-0.0450.png,B,64.0,1609711.0,0.732,arrowup,arrowdown,1
S016,MullerLyer,-0.1337,30.0,MullerLyer_30.0000_-0.1337.png,B,65.0,1611277.0,0.635,arrowup,arrowdown,1
S016,MullerLyer,-0.1337,-24.0,MullerLyer_-24.000_-0.1337.png,B,66.0,1612644.0,0.607,arrowdown,arrowdown,0
S016,MullerLyer,-0.1337,-30.0,MullerLyer_-30.000_-0.1337.png,B,67.0,1614361.0,0.501,arrowdown,arrowdown,0
S016,MullerLyer,-0.045,-24.0,MullerLyer_-24.000_-0.0450.png,B,68.0,1615605.0,0.586,arrowdown,arrowdown,0
S016,MullerLyer,-0.045,-30.0,MullerLyer_-30.000_-0.0450.png,B,69.0,1616813.0,0.499,arrowdown,arrowdown,0
S016,MullerLyer,0.1337,-6.0,MullerLyer_-6.0000_0.13370.png,B,70.0,1618194.0,0.707,arrowup,arrowup,0
S016,MullerLyer,0.045,-30.0,MullerLyer_-30.000_0.04500.png,B,71.0,1619930.0,0.491,arrowup,arrowup,0
S016,MullerLyer,0.24183,12.0,MullerLyer_12.0000_0.24183.png,B,72.0,1621279.0,0.523,arrowup,arrowup,0
S016,MullerLyer,0.045,12.0,MullerLyer_12.0000_0.04500.png,B,73.0,1622797.0,1.155,arrowdown,arrowup,1
S016,MullerLyer,-0.37364,24.0,MullerLyer_24.0000_-0.37364.png,B,74.0,1624748.0,1.004,arrowdown,arrowdown,0
S016,MullerLyer,0.37364,18.0,MullerLyer_18.0000_0.37364.png,B,75.0,1626431.0,0.741,arrowup,arrowup,0
S016,MullerLyer,-0.045,-12.0,MullerLyer_-12.000_-0.0450.png,B,76.0,1628047.0,0.535,arrowdown,arrowdown,0
S016,MullerLyer,-0.1337,-18.0,MullerLyer_-18.000_-0.1337.png,B,77.0,1629197.0,0.665,arrowdown,arrowdown,0
S016,MullerLyer,0.37364,-18.0,MullerLyer_-18.000_0.37364.png,B,78.0,1630916.0,0.635,arrowup,arrowup,0
S016,MullerLyer,0.1337,6.0,MullerLyer_6.00000_0.13370.png,B,79.0,1632332.0,0.618,arrowup,arrowup,0
S016,MullerLyer,0.1337,-12.0,MullerLyer_-12.000_0.13370.png,B,80.0,1633700.0,0.551,arrowup,arrowup,0
S016,Ebbinghaus,0.14856,1.2,Ebbinghaus_1.20000_0.14856.png,B,1.0,1644519.0,1.711,arrowleft,arrowleft,0
S016,Ebbinghaus,0.14856,-0.6,Ebbinghaus_-0.6000_0.14856.png,B,2.0,1647202.0,0.89,arrowleft,arrowleft,0
S016,Ebbinghaus,0.41515,0.9,Ebbinghaus_0.90000_0.41515.png,B,3.0,1649103.0,0.567,arrowleft,arrowleft,0
S016,Ebbinghaus,-0.2687,0.9,Ebbinghaus_0.90000_-0.2687.png,B,4.0,1650404.0,0.557,arrowright,arrowright,0
S016,Ebbinghaus,-0.05,-1.2,Ebbinghaus_-1.2000_-0.0500.png,B,5.0,1651854.0,0.786,arrowright,arrowright,0
S016,Ebbinghaus,0.14856,-0.9,Ebbinghaus_-0.9000_0.14856.png,B,6.0,1653556.0,0.725,arrowleft,arrowleft,0
S016,Ebbinghaus,-0.05,-0.9,Ebbinghaus_-0.9000_-0.0500.png,B,7.0,1654924.0,0.607,arrowright,arrowright,0
S016,Ebbinghaus,-0.2687,0.3,Ebbinghaus_0.30000_-0.2687.png,B,8.0,1656306.0,0.585,arrowright,arrowright,0
S016,Ebbinghaus,-0.2687,0.6,Ebbinghaus_0.60000_-0.2687.png,B,9.0,1657623.0,0.549,arrowright,arrowright,0
S016,Ebbinghaus,-0.2687,1.2,Ebbinghaus_1.20000_-0.2687.png,B,10.0,1658940.0,0.491,arrowright,arrowright,0
S016,Ebbinghaus,-0.2687,-1.2,Ebbinghaus_-1.2000_-0.2687.png,B,11.0,1660474.0,0.538,arrowright,arrowright,0
S016,Ebbinghaus,-0.05,-0.6,Ebbinghaus_-0.6000_-0.0500.png,B,12.0,1661886.0,0.605,arrowright,arrowright,0
S016,Ebbinghaus,0.41515,-1.5,Ebbinghaus_-1.5000_0.41515.png,B,13.0,1663258.0,0.583,arrowleft,arrowleft,0
S016,Ebbinghaus,-0.41515,-0.9,Ebbinghaus_-0.9000_-0.41515.png,B,14.0,1664841.0,0.551,arrowright,arrowright,0
S016,Ebbinghaus,0.41515,-0.3,Ebbinghaus_-0.3000_0.41515.png,B,15.0,1666406.0,0.554,arrowleft,arrowleft,0
S016,Ebbinghaus,0.41515,0.3,Ebbinghaus_0.30000_0.41515.png,B,16.0,1668026.0,0.545,arrowleft,arrowleft,0
S016,Ebbinghaus,0.2687,0.6,Ebbinghaus_0.60000_0.26870.png,B,17.0,1669276.0,1.135,arrowleft,arrowleft,0
S016,Ebbinghaus,-0.2687,-0.9,Ebbinghaus_-0.9000_-0.2687.png,B,18.0,1671027.0,0.574,arrowright,arrowright,0
S016,Ebbinghaus,-0.2687,1.5,Ebbinghaus_1.50000_-0.2687.png,B,19.0,1672509.0,0.853,arrowright,arrowright,0
S016,Ebbinghaus,0.05,1.5,Ebbinghaus_1.50000_0.05000.png,B,20.0,1674360.0,0.591,arrowright,arrowleft,1
S016,Ebbinghaus,-0.14856,-1.5,Ebbinghaus_-1.5000_-0.14856.png,B,21.0,1675894.0,0.577,arrowright,arrowright,0
S016,Ebbinghaus,0.14856,0.9,Ebbinghaus_0.90000_0.14856.png,B,22.0,1677450.0,0.731,arrowleft,arrowleft,0
S016,Ebbinghaus,0.2687,-1.5,Ebbinghaus_-1.5000_0.26870.png,B,23.0,1678944.0,0.728,arrowleft,arrowleft,0
S016,Ebbinghaus,0.2687,0.3,Ebbinghaus_0.30000_0.26870.png,B,24.0,1680612.0,0.718,arrowleft,arrowleft,0
S016,Ebbinghaus,-0.2687,-0.6,Ebbinghaus_-0.6000_-0.2687.png,B,25.0,1682311.0,0.569,arrowright,arrowright,0
S016,Ebbinghaus,0.2687,-0.6,Ebbinghaus_-0.6000_0.26870.png,B,26.0,1683594.0,0.616,arrowleft,arrowleft,0
S016,Ebbinghaus,0.41515,-1.2,Ebbinghaus_-1.2000_0.41515.png,B,27.0,1685097.0,0.553,arrowleft,arrowleft,0
S016,Ebbinghaus,0.14856,-1.2,Ebbinghaus_-1.2000_0.14856.png,B,28.0,1686596.0,0.505,arrowright,arrowleft,1
S016,Ebbinghaus,0.14856,-0.3,Ebbinghaus_-0.3000_0.14856.png,B,29.0,1687946.0,0.754,arrowleft,arrowleft,0
S016,Ebbinghaus,0.05,0.3,Ebbinghaus_0.30000_0.05000.png,B,30.0,1689381.0,0.63,arrowright,arrowleft,1
S016,Ebbinghaus,0.05,-0.3,Ebbinghaus_-0.3000_0.05000.png,B,31.0,1690714.0,1.056,arrowleft,arrowleft,0
S016,Ebbinghaus,0.14856,-1.5,Ebbinghaus_-1.5000_0.14856.png,B,32.0,1692732.0,0.698,arrowleft,arrowleft,0
S016,Ebbinghaus,-0.14856,1.5,Ebbinghaus_1.50000_-0.14856.png,B,33.0,1694380.0,0.86,arrowleft,arrowright,1
S016,Ebbinghaus,-0.14856,-0.3,Ebbinghaus_-0.3000_-0.14856.png,B,34.0,1696182.0,0.548,arrowright,arrowright,0
S016,Ebbinghaus,0.05,0.9,Ebbinghaus_0.90000_0.05000.png,B,35.0,1697759.0,0.55,arrowright,arrowleft,1
S016,Ebbinghaus,0.05,0.6,Ebbinghaus_0.60000_0.05000.png,B,36.0,1699183.0,0.797,arrowright,arrowleft,1
S016,Ebbinghaus,0.41515,-0.6,Ebbinghaus_-0.6000_0.41515.png,B,37.0,1701016.0,0.575,arrowleft,arrowleft,0
S016,Ebbinghaus,-0.14856,0.9,Ebbinghaus_0.90000_-0.14856.png,B,38.0,1702383.0,1.266,arrowright,arrowright,0
S016,Ebbinghaus,0.05,-0.9,Ebbinghaus_-0.9000_0.05000.png,B,39.0,1704733.0,0.816,arrowleft,arrowleft,0
S016,Ebbinghaus,-0.14856,-1.2,Ebbinghaus_-1.2000_-0.14856.png,B,40.0,1706633.0,0.507,arrowright,arrowright,0
S016,Ebbinghaus,-0.14856,0.6,Ebbinghaus_0.60000_-0.14856.png,B,41.0,1707986.0,0.523,arrowright,arrowright,0
S016,Ebbinghaus,-0.41515,-1.2,Ebbinghaus_-1.2000_-0.41515.png,B,42.0,1709618.0,0.492,arrowright,arrowright,0
S016,Ebbinghaus,-0.41515,-0.3,Ebbinghaus_-0.3000_-0.41515.png,B,43.0,1710786.0,0.654,arrowright,arrowright,0
S016,Ebbinghaus,0.05,-1.5,Ebbinghaus_-1.5000_0.05000.png,B,44.0,1712269.0,0.571,arrowleft,arrowleft,0
S016,Ebbinghaus,0.14856,0.3,Ebbinghaus_0.30000_0.14856.png,B,45.0,1713552.0,0.627,arrowleft,arrowleft,0
S016,Ebbinghaus,-0.41515,1.5,Ebbinghaus_1.50000_-0.41515.png,B,46.0,1714820.0,0.51,arrowright,arrowright,0
S016,Ebbinghaus,-0.05,0.3,Ebbinghaus_0.30000_-0.0500.png,B,47.0,1716320.0,1.54,arrowright,arrowright,0
S016,Ebbinghaus,0.05,-0.6,Ebbinghaus_-0.6000_0.05000.png,B,48.0,1718887.0,0.642,arrowleft,arrowleft,0
S016,Ebbinghaus,-0.05,-0.3,Ebbinghaus_-0.3000_-0.0500.png,B,49.0,1720554.0,0.725,arrowleft,arrowright,1
S016,Ebbinghaus,0.2687,1.2,Ebbinghaus_1.20000_0.26870.png,B,50.0,1722304.0,0.567,arrowleft,arrowleft,0
S016,Ebbinghaus,-0.41515,0.3,Ebbinghaus_0.30000_-0.41515.png,B,51.0,1723888.0,0.552,arrowright,arrowright,0
S016,Ebbinghaus,-0.14856,-0.6,Ebbinghaus_-0.6000_-0.14856.png,B,52.0,1725328.0,0.551,arrowright,arrowright,0
S016,Ebbinghaus,0.41515,1.2,Ebbinghaus_1.20000_0.41515.png,B,53.0,1726947.0,0.543,arrowleft,arrowleft,0
S016,Ebbinghaus,-0.41515,1.2,Ebbinghaus_1.20000_-0.41515.png,B,54.0,1728389.0,0.481,arrowright,arrowright,0
S016,Ebbinghaus,0.2687,-0.3,Ebbinghaus_-0.3000_0.26870.png,B,55.0,1729807.0,0.582,arrowleft,arrowleft,0
S016,Ebbinghaus,-0.41515,0.9,Ebbinghaus_0.90000_-0.41515.png,B,56.0,1731123.0,0.546,arrowright,arrowright,0
S016,Ebbinghaus,0.2687,1.5,Ebbinghaus_1.50000_0.26870.png,B,57.0,1732743.0,0.537,arrowleft,arrowleft,0
S016,Ebbinghaus,0.2687,0.9,Ebbinghaus_0.90000_0.26870.png,B,58.0,1734351.0,0.538,arrowleft,arrowleft,0
S016,Ebbinghaus,-0.41515,-0.6,Ebbinghaus_-0.6000_-0.41515.png,B,59.0,1735974.0,0.605,arrowright,arrowright,0
S016,Ebbinghaus,0.2687,-1.2,Ebbinghaus_-1.2000_0.26870.png,B,60.0,1737625.0,0.513,arrowleft,arrowleft,0
S016,Ebbinghaus,-0.14856,1.2,Ebbinghaus_1.20000_-0.14856.png,B,61.0,1739210.0,0.789,arrowright,arrowright,0
S016,Ebbinghaus,0.41515,1.5,Ebbinghaus_1.50000_0.41515.png,B,62.0,1740876.0,0.553,arrowleft,arrowleft,0
S016,Ebbinghaus,0.14856,0.6,Ebbinghaus_0.60000_0.14856.png,B,63.0,1742528.0,0.561,arrowleft,arrowleft,0
S016,Ebbinghaus,0.2687,-0.9,Ebbinghaus_-0.9000_0.26870.png,B,64.0,1743712.0,0.578,arrowleft,arrowleft,0
S016,Ebbinghaus,0.05,-1.2,Ebbinghaus_-1.2000_0.05000.png,B,65.0,1745293.0,0.506,arrowright,arrowleft,1
S016,Ebbinghaus,0.41515,-0.9,Ebbinghaus_-0.9000_0.41515.png,B,66.0,1746676.0,0.562,arrowleft,arrowleft,0
S016,Ebbinghaus,-0.14856,0.3,Ebbinghaus_0.30000_-0.14856.png,B,67.0,1748011.0,0.577,arrowright,arrowright,0
S016,Ebbinghaus,0.14856,1.5,Ebbinghaus_1.50000_0.14856.png,B,68.0,1749362.0,0.807,arrowright,arrowleft,1
S016,Ebbinghaus,-0.05,0.9,Ebbinghaus_0.90000_-0.0500.png,B,69.0,1750913.0,1.185,arrowright,arrowright,0
S016,Ebbinghaus,0.41515,0.6,Ebbinghaus_0.60000_0.41515.png,B,70.0,1753163.0,0.675,arrowleft,arrowleft,0
S016,Ebbinghaus,-0.2687,-0.3,Ebbinghaus_-0.3000_-0.2687.png,B,71.0,1754796.0,0.533,arrowright,arrowright,0
S016,Ebbinghaus,-0.05,-1.5,Ebbinghaus_-1.5000_-0.0500.png,B,72.0,1756079.0,0.629,arrowright,arrowright,0
S016,Ebbinghaus,-0.41515,-1.5,Ebbinghaus_-1.5000_-0.41515.png,B,73.0,1757749.0,0.549,arrowright,arrowright,0
S016,Ebbinghaus,0.05,1.2,Ebbinghaus_1.20000_0.05000.png,B,74.0,1758923.0,0.846,arrowright,arrowleft,1
S016,Ebbinghaus,-0.14856,-0.9,Ebbinghaus_-0.9000_-0.14856.png,B,75.0,1760715.0,0.614,arrowright,arrowright,0
S016,Ebbinghaus,-0.05,1.2,Ebbinghaus_1.20000_-0.0500.png,B,76.0,1761998.0,0.661,arrowleft,arrowright,1
S016,Ebbinghaus,-0.05,0.6,Ebbinghaus_0.60000_-0.0500.png,B,77.0,1763350.0,0.889,arrowleft,arrowright,1
S016,Ebbinghaus,-0.2687,-1.5,Ebbinghaus_-1.5000_-0.2687.png,B,78.0,1765183.0,0.606,arrowright,arrowright,0
S016,Ebbinghaus,-0.05,1.5,Ebbinghaus_1.50000_-0.0500.png,B,79.0,1766833.0,1.026,arrowleft,arrowright,1
S016,Ebbinghaus,-0.41515,0.6,Ebbinghaus_0.60000_-0.41515.png,B,80.0,1768568.0,0.581,arrowright,arrowright,0
S016,VerticalHorizontal,0.24909,36.0,VerticalHorizontal_36.0000_0.24909.png,B,1.0,1776902.0,0.826,arrowleft,arrowleft,0
S016,VerticalHorizontal,0.03,45.0,VerticalHorizontal_45.0000_0.03000.png,B,2.0,1778754.0,0.645,arrowright,arrowleft,1
S016,VerticalHorizontal,0.03,-45.0,VerticalHorizontal_-45.000_0.03000.png,B,3.0,1780489.0,0.509,arrowleft,arrowleft,0
S016,VerticalHorizontal,-0.03,-45.0,VerticalHorizontal_-45.000_-0.0300.png,B,4.0,1781836.0,0.592,arrowright,arrowright,0
S016,VerticalHorizontal,0.24909,45.0,VerticalHorizontal_45.0000_0.24909.png,B,5.0,1783121.0,0.606,arrowleft,arrowleft,0
S016,VerticalHorizontal,0.24909,9.0,VerticalHorizontal_9.00000_0.24909.png,B,6.0,1784386.0,0.53,arrowleft,arrowleft,0
S016,VerticalHorizontal,-0.16122,-9.0,VerticalHorizontal_-9.0000_-0.16122.png,B,7.0,1785872.0,0.667,arrowright,arrowright,0
S016,VerticalHorizontal,0.03,27.0,VerticalHorizontal_27.0000_0.03000.png,B,8.0,1787386.0,0.761,arrowright,arrowleft,1
S016,VerticalHorizontal,-0.03,36.0,VerticalHorizontal_36.0000_-0.0300.png,B,9.0,1789006.0,0.532,arrowleft,arrowright,1
S016,VerticalHorizontal,0.16122,-27.0,VerticalHorizontal_-27.000_0.16122.png,B,10.0,1790623.0,0.494,arrowleft,arrowleft,0
S016,VerticalHorizontal,0.24909,27.0,VerticalHorizontal_27.0000_0.24909.png,B,11.0,1791906.0,0.672,arrowleft,arrowleft,0
S016,VerticalHorizontal,0.16122,-18.0,VerticalHorizontal_-18.000_0.16122.png,B,12.0,1793456.0,0.462,arrowleft,arrowleft,0
S016,VerticalHorizontal,0.08913,18.0,VerticalHorizontal_18.0000_0.08913.png,B,13.0,1794538.0,0.639,arrowright,arrowleft,1
S016,VerticalHorizontal,-0.08913,-36.0,VerticalHorizontal_-36.000_-0.08913.png,B,14.0,1796291.0,0.517,arrowright,arrowright,0
S016,VerticalHorizontal,-0.08913,36.0,VerticalHorizontal_36.0000_-0.08913.png,B,15.0,1797425.0,0.543,arrowleft,arrowright,1
S016,VerticalHorizontal,-0.08913,45.0,VerticalHorizontal_45.0000_-0.08913.png,B,16.0,1798708.0,0.75,arrowleft,arrowright,1
S016,VerticalHorizontal,0.24909,-18.0,VerticalHorizontal_-18.000_0.24909.png,B,17.0,1800377.0,0.471,arrowleft,arrowleft,0
S016,VerticalHorizontal,-0.16122,-27.0,VerticalHorizontal_-27.000_-0.16122.png,B,18.0,1801557.0,0.491,arrowright,arrowright,0
S016,VerticalHorizontal,-0.24909,-27.0,VerticalHorizontal_-27.000_-0.24909.png,B,19.0,1802677.0,0.491,arrowright,arrowright,0
S016,VerticalHorizontal,0.08913,-18.0,VerticalHorizontal_-18.000_0.08913.png,B,20.0,1803842.0,0.497,arrowleft,arrowleft,0
S016,VerticalHorizontal,-0.16122,-45.0,VerticalHorizontal_-45.000_-0.16122.png,B,21.0,1805412.0,0.456,arrowright,arrowright,0
S016,VerticalHorizontal,-0.16122,-18.0,VerticalHorizontal_-18.000_-0.16122.png,B,22.0,1806978.0,0.46,arrowright,arrowright,0
S016,VerticalHorizontal,0.03,9.0,VerticalHorizontal_9.00000_0.03000.png,B,23.0,1808394.0,0.644,arrowleft,arrowleft,0
S016,VerticalHorizontal,-0.24909,9.0,VerticalHorizontal_9.00000_-0.24909.png,B,24.0,1809728.0,0.52,arrowright,arrowright,0
S016,VerticalHorizontal,0.08913,45.0,VerticalHorizontal_45.0000_0.08913.png,B,25.0,1810910.0,0.678,arrowright,arrowleft,1
S016,VerticalHorizontal,-0.16122,27.0,VerticalHorizontal_27.0000_-0.16122.png,B,26.0,1812362.0,0.586,arrowleft,arrowright,1
S016,VerticalHorizontal,0.16122,9.0,VerticalHorizontal_9.00000_0.16122.png,B,27.0,1813877.0,0.532,arrowleft,arrowleft,0
S016,VerticalHorizontal,0.24909,-27.0,VerticalHorizontal_-27.000_0.24909.png,B,28.0,1815196.0,0.501,arrowleft,arrowleft,0
S016,VerticalHorizontal,0.16122,-36.0,VerticalHorizontal_-36.000_0.16122.png,B,29.0,1816329.0,0.529,arrowleft,arrowleft,0
S016,VerticalHorizontal,-0.03,-9.0,VerticalHorizontal_-9.0000_-0.0300.png,B,30.0,1817497.0,0.921,arrowright,arrowright,0
S016,VerticalHorizontal,-0.03,-27.0,VerticalHorizontal_-27.000_-0.0300.png,B,31.0,1819480.0,0.558,arrowright,arrowright,0
S016,VerticalHorizontal,-0.24909,18.0,VerticalHorizontal_18.0000_-0.24909.png,B,32.0,1820863.0,0.845,arrowright,arrowright,0
S016,VerticalHorizontal,-0.03,18.0,VerticalHorizontal_18.0000_-0.0300.png,B,33.0,1822762.0,0.556,arrowleft,arrowright,1
S016,VerticalHorizontal,-0.08913,-45.0,VerticalHorizontal_-45.000_-0.08913.png,B,34.0,1824214.0,0.494,arrowright,arrowright,0
